,acceleration_x,acceleration_y,acceleration_z,gps_lat,gps_long,gyro_x,gyro_y,gyro_z,speed_x,speed_y,timestamp,linear_speed,steer,course
0,-0.994,-0.001,-0.051,40.763565,-73.92182,-0.0407,0.0225,0.0143,-3.3922873,1.9894763,1490135938356,3.93263640247,0.0,1.04038441859
1,-0.9422151,0.03323069,-0.10980657,40.763565,-73.92182,-0.023351824,-0.005331299,-0.025962612,-3.4151506,2.0088158,1490135938389,3.96214519408,0.0,1.0390932127
2,-1.0164483,-0.019781983,-0.046103515,40.76357,-73.92182,-0.009471977,-0.018224599,-0.008242822,-3.438014,2.028155,1490135938423,3.99166042747,0.0,1.03782117715
3,-0.8933803,0.051926415,-0.11693862,40.76357,-73.92182,-0.032732062,-0.020285659,-0.004012488,-3.4608772,2.0474944,1490135938456,4.02118195454,0.0,1.03656774883
4,-0.91759866,0.017885376,-0.09791083,40.76357,-73.92182,-0.017142124,0.019470952,-0.073081516,-3.4837403,2.0668337,1490135938490,4.0507095701,0.0,1.03533260102
5,-0.993917,-0.06876048,-0.08377075,40.76357,-73.92182,-0.0006611865,-0.04075091,-0.027536973,-3.5066037,2.086173,1490135938523,4.08024353376,0.0,1.03411536951
6,-0.93328094,-0.097863734,-0.07863521,40.76357,-73.92182,-0.022752708,0.0561647,-0.032370213,-3.5294666,2.1055124,1490135938557,4.10978307786,0.0,1.03291555123
7,-0.95703506,0.00744303,-0.08496494,40.763573,-73.92182,-0.033989117,-0.082386985,-0.008707861,-3.55233,2.1248517,1490135938590,4.13932883157,0.0,1.03173294195
8,-1.0413852,-0.0984634,-0.098435044,40.763573,-73.92182,-0.017046163,0.031875774,-0.018892499,-3.5751934,2.1441913,1490135938624,4.16888044664,0.0,1.03056703539
9,-1.0283242,-0.17137012,-0.10020996,40.763573,-73.92182,-0.025367385,-0.042750232,0.020794852,-3.5980566,2.1635306,1490135938657,4.19843732285,0.0,1.02941758005
10,-1.0869837,-0.12976427,-0.06652699,40.763573,-73.92182,-0.02363633,0.033300977,0.05237403,-3.62092,2.18287,1490135938691,4.22799989159,0.0,1.02828420148
11,-0.9655124,-0.009547974,-0.13666865,40.763577,-73.92182,-0.030988924,0.042232897,0.049242795,-3.643783,2.2022092,1490135938725,4.25756737018,0.0,1.02716655525
12,-1.0881182,-0.080649905,-0.069654934,40.763577,-73.92182,-0.034777127,-0.040795404,0.049467552,-3.666646,2.2215486,1490135938758,4.28714019732,0.0,1.02606428683
13,-1.0051224,-0.1099999,-0.08819389,40.763577,-73.92182,0.004480781,0.02997357,0.056636125,-3.6895096,2.2408879,1490135938792,4.31671862285,0.0,1.02497721444
14,-1.0321342,-0.05633865,-0.07604382,40.763577,-73.92182,-0.027714502,-0.024687134,0.045614734,-3.7123728,2.2602272,1490135938825,4.34630173847,0.0,1.02390489144
15,-0.9883031,-0.00205625,-0.09077188,40.763577,-73.92182,-0.0139425,0.01590125,0.07056063,-3.7352362,2.2795668,1490135938859,4.37589011122,0.0,1.02284703378
16,-0.9877932,0.0005600586,-0.095256716,40.76358,-73.92182,0.00503062,-0.01640931,0.050557315,-3.7580993,2.298906,1490135938892,4.40548285044,0.0,1.02180342889
17,-0.9782888,0.014810742,-0.053058643,40.76358,-73.92182,-0.03223436,0.04960816,0.03438349,-3.7809627,2.3182456,1490135938926,4.43508078852,0.0,1.02077371034
18,-0.9696199,0.030834863,-0.10601868,40.76358,-73.92182,-0.017809672,-0.0057809423,0.030451532,-3.803826,2.337585,1490135938959,4.46468317695,0.0,1.01975767203
19,-0.9175107,0.010694189,-0.09437615,40.76358,-73.92182,-0.013746071,0.03905564,0.018154677,-3.8266892,2.356924,1490135938993,4.49428981878,0.0,1.01875508347
20,-1.013479,-0.023920666,-0.080833495,40.763584,-73.92187,-0.0028971643,-0.000941333,-0.005079187,-3.83086,2.3640668,1490135939027,4.50158862786,0.0,1.01788994408
21,-0.9322956,-0.0017274902,-0.121,40.763584,-73.92187,-0.0048690247,0.008039527,0.021534601,-3.830565,2.3682957,1490135939060,4.50356000758,0.0,1.01705644237
22,-1.0135484,-0.018013757,-0.11171252,40.763584,-73.92187,-0.0400519,0.028940476,-0.0092190895,-3.83027,2.3725243,1490135939094,4.50553435532,0.0,1.01622372724
23,-0.9364669,-0.026533142,-0.12200274,40.763584,-73.92187,-0.003289425,0.050819647,-0.004339668,-3.829975,2.3767533,1490135939127,4.50751203545,0.0,1.01539166677
24,-0.9894249,-0.009839942,-0.130465,40.763584,-73.92187,-0.044987064,0.005880326,-0.014981997,-3.82968,2.380982,1490135939161,4.50949267509,0.0,1.01456039318
25,-0.9598563,-0.009994934,-0.12128745,40.763588,-73.92187,-0.00738599,-0.020976033,-0.027314575,-3.8293848,2.3852108,1490135939194,4.51147631124,0.0,1.01372980781
26,-0.9674613,-0.02933451,-0.10525704,40.763588,-73.92187,0.004582289,-0.011407647,-0.04236237,-3.8290896,2.3894396,1490135939228,4.513463057,0.0,1.01289995309
27,-1.0689251,-0.08418915,-0.075547285,40.763588,-73.92187,-0.0331565,0.03336188,-0.0033684245,-3.828795,2.3936684,1490135939261,4.51545341701,0.0,1.01207089963
28,-1.0295428,-0.07656275,-0.07287417,40.763588,-73.92187,-0.011516602,-0.0721589,0.02611312,-3.8284996,2.397897,1490135939295,4.51744609374,0.0,1.01124252081
29,-0.9654991,-0.0005539795,-0.115391165,40.763588,-73.92187,-0.025780795,0.026482532,-0.004282439,-3.8282046,2.4021258,1490135939329,4.51944231277,0.0,1.0104148826
30,-0.99044377,-0.02466875,-0.09681875,40.763588,-73.92187,-0.042628124,0.058675,-0.006471875,-3.8279095,2.4063547,1490135939362,4.52144159339,0.0,1.00958794526
31,-1.0707918,-0.123150244,-0.022034718,40.76359,-73.92187,0.018132674,-0.07758887,0.010916575,-3.8276143,2.4105835,1490135939396,4.52344382523,0.0,1.0087617464
32,-0.94716334,-0.021449951,-0.12195679,40.76359,-73.92187,-0.032230753,0.04668537,0.008283228,-3.8273196,2.414812,1490135939429,4.52544940485,0.0,1.00793639421
33,-1.0048242,-0.014683642,-0.10608958,40.76359,-73.92187,-0.03556918,0.024516625,0.0133144315,-3.8270245,2.4190412,1490135939463,4.5274581004,0.0,1.00711159591
34,-0.9609544,-0.032079224,-0.09353662,40.76359,-73.92187,0.00025844725,0.013414176,0.010946653,-3.8267293,2.4232697,1490135939496,4.52946941423,0.0,1.00628764848
35,-0.9729532,-0.047484264,-0.09652085,40.76359,-73.92187,-0.032927837,-0.009279206,0.018440135,-3.8264341,2.4274983,1490135939530,4.5314838539,0.0,1.00546441439
36,-0.9745301,-0.038580175,-0.14507252,40.763596,-73.92187,-0.02462452,0.032904387,0.035132956,-3.8261392,2.4317274,1490135939563,4.53350188328,0.0,1.00464185488
37,-0.98402685,0.021351244,-0.1190889,40.763596,-73.92187,-0.013969867,0.030804273,0.0048180297,-3.825844,2.435956,1490135939597,4.53552245571,0.0,1.00382008537
38,-0.99912626,-0.015534204,-0.08522284,40.763596,-73.92187,-0.038556498,0.021949135,0.00720491,-3.8255491,2.4401848,1490135939631,4.53754644876,0.0,1.00299904667
39,-0.97658116,0.00735553,-0.09877381,40.763596,-73.92187,0.00091900025,-0.050566643,-0.004358561,-3.825254,2.4444134,1490135939664,4.53957322164,0.0,1.00217875406
40,-0.96487504,0.0219333,-0.109466895,40.763596,-73.92187,-0.025290776,0.014091614,-0.01893177,-3.8249588,2.4486423,1490135939698,4.5416031239,0.0,1.00135912663
41,-1.0471396,-0.046715174,-0.08734878,40.7636,-73.92187,-0.016681861,-0.019945603,-0.022695336,-3.8246639,2.452871,1490135939731,4.543636219,0.0,1.00054030481
42,-1.010756,0.004184863,-0.12989344,40.7636,-73.92187,-0.007883027,0.001416333,-0.017447412,-3.824369,2.4571,1490135939765,4.5456725199,0.0,0.999722160452
43,-1.0248947,-0.03358799,-0.083994925,40.7636,-73.92187,-0.0036049413,-0.06859073,-0.024978003,-3.8240736,2.4613287,1490135939798,4.54771127796,0.0,0.998904745282
44,-0.9667533,-0.034475807,-0.11747581,40.7636,-73.92187,-0.0026606445,0.042787135,-0.043272145,-3.8237786,2.4655573,1490135939832,4.54975335391,0.0,0.998088129346
45,-1.0448219,-0.03735625,-0.1135875,40.7636,-73.92187,-0.017115,0.000299375,-0.044935,-3.8234835,2.4697862,1490135939865,4.55179853997,0.0,0.997272179388
46,-0.99799037,-0.07635083,-0.106711306,40.7636,-73.92187,0.005038877,-0.025846755,-0.026607728,-3.8231888,2.4740152,1490135939899,4.55384714393,0.0,0.996456992163
47,-0.99691737,-0.072091796,-0.11099082,40.763603,-73.92187,0.008400528,-0.012928594,-0.050336495,-3.8228934,2.478244,1490135939933,4.55589807517,0.0,0.99564249185
48,-0.9725601,-0.08683982,-0.11720008,40.763603,-73.92187,-0.0033739698,0.017717063,-0.026279932,-3.8225985,2.4824727,1490135939966,4.55795239098,5.0,0.994828803222
49,-1.0054308,-0.08813054,-0.11170757,40.763603,-73.92191,0.019968526,-0.02521355,-0.020977689,-3.8223052,2.4866521,1490135940000,4.55998417852,5.0,0.994025102016
50,-0.94789374,-0.05795614,-0.11961046,40.763603,-73.92191,0.020154126,-0.03131008,-0.014792225,-3.8224113,2.4801497,1490135940033,4.55653055304,5.0,0.995233993688
51,-0.98422176,-0.07829502,-0.116131224,40.763603,-73.92191,0.009764062,0.019248046,-0.034736607,-3.8225174,2.4736476,1490135940067,4.55308375964,5.0,0.996444662221
52,-1.0030566,-0.07028831,-0.11468999,40.763607,-73.92191,0.027789336,-0.01971429,-0.029630426,-3.8226237,2.4671452,1490135940100,4.54964365524,5.0,0.997657242613
53,-1.0173954,-0.13510895,-0.10850433,40.763607,-73.92191,0.047328826,-0.070652306,-0.010441004,-3.82273,2.4606428,1490135940134,4.54621025054,5.0,0.998871656331
54,-0.9558812,-0.076732345,-0.096073866,40.763607,-73.92191,0.036830433,-0.036599096,-0.0073917946,-3.8228362,2.4541407,1490135940167,4.54278363863,5.0,1.00008783648
55,-0.9596083,-0.09384792,-0.089119814,40.763607,-73.92191,0.049437508,0.0059600035,-0.024244832,-3.8229423,2.4476385,1490135940201,4.53936361793,5.0,1.00130585761
56,-0.9647786,-0.080846824,-0.09859464,40.763607,-73.92191,0.026182294,0.02780998,-0.023368629,-3.8230486,2.4411364,1490135940235,4.53595056426,5.0,1.00252571881
57,-0.97192836,-0.10444126,-0.07940976,40.76361,-73.92191,0.04924685,-0.017765583,-0.004081267,-3.8231547,2.434634,1490135940268,4.53254394067,0.0,1.00374744745
58,-0.96437126,-0.09977256,-0.092570804,40.76361,-73.92191,0.055313356,-0.022810254,-0.00019265137,-3.8232613,2.4281318,1490135940302,4.52914462192,0.0,1.00497103403
59,-0.9776175,-0.10805647,-0.10123496,40.76361,-73.92191,0.032247968,0.013741431,0.007309807,-3.823367,2.4216297,1490135940335,4.52575138741,0.0,1.0061963318
60,-1.0326875,-0.0946875,-0.117125,40.76361,-73.92191,0.04143125,0.02578875,0.01181125,-3.8234735,2.4151273,1490135940369,4.522365474,0.0,1.00742361701
61,-1.0208825,-0.07723496,-0.10384336,40.76361,-73.92191,0.034068882,0.017336886,0.01799423,-3.8235795,2.4086251,1490135940402,4.51898606605,0.0,1.00865264308
62,-1.0421679,-0.07732832,-0.12144361,40.763615,-73.92191,0.030480191,-0.016891899,0.035088383,-3.8236856,2.4021227,1490135940436,4.51561347255,0.0,1.00988355613
63,-0.9660477,-0.057087403,-0.108523265,40.763615,-73.92191,0.04431918,-0.051246375,0.03997645,-3.823792,2.3956203,1490135940469,4.51224798532,0.0,1.01111634266
64,-0.9694463,-0.04101012,-0.10609331,40.763615,-73.92191,0.02728795,0.033104073,0.005414708,-3.8238983,2.3891182,1490135940503,4.50888944002,0.0,1.01235089946
65,-1.0073917,-0.022618677,-0.09340207,40.763615,-73.92191,0.025234448,0.019964935,0.008469916,-3.8240044,2.382616,1490135940537,4.50553755446,0.0,1.01358729028
66,-1.0045149,-0.023818787,-0.083576284,40.763615,-73.92191,0.04814963,-0.013955055,0.0008992603,-3.8241105,2.376114,1490135940570,4.50219267216,0.0,1.01482548247
67,-0.9999033,-0.021766052,-0.08621771,40.76362,-73.92191,0.051665094,-0.032189097,-0.008774871,-3.8242168,2.3696115,1490135940604,4.49885460916,0.0,1.01606563183
68,-0.97416496,-0.04187334,-0.08121502,40.76362,-73.92191,0.058347907,-0.032507457,-0.011057507,-3.824323,2.363109,1490135940637,4.49552339046,0.0,1.01730760928
69,-0.94929504,-0.032498084,-0.12782758,40.76362,-73.92191,0.043532547,0.035741955,-0.03625661,-3.824429,2.356607,1490135940671,4.49219920846,0.0,1.01855130868
70,-0.99023736,-0.0622833,-0.09063556,40.76362,-73.92191,0.036079176,0.017296905,-0.03405996,-3.8245354,2.3501048,1490135940704,4.48888222131,0.0,1.01979693279
71,-1.00611,-0.06791189,-0.0745819,40.76362,-73.92191,0.048763353,0.0025990808,-0.03472119,-3.8246412,2.3436024,1490135940738,4.48557159323,0.0,1.02104436531
72,-1.0082948,-0.077019826,-0.08186025,40.763622,-73.92191,0.03799059,-0.014030432,-0.034688488,-3.8247478,2.3371003,1490135940771,4.48226879447,0.0,1.02229367457
73,-1.0167913,-0.10177295,-0.094208695,40.763622,-73.92191,0.044892877,-0.04628054,-0.011887563,-3.824854,2.3305979,1490135940805,4.47897250414,0.0,1.02354483507
74,-0.97840333,-0.11079419,-0.09650207,40.763622,-73.92191,0.05202728,-0.044792384,-0.0045853127,-3.82496,2.3240957,1490135940839,4.47568316845,0.0,1.02479777516
75,-0.98986876,-0.11469375,-0.10195625,40.763622,-73.92191,0.03628,-0.049860936,0.00191375,-3.8250663,2.3175936,1490135940872,4.47240117768,0.0,1.02605257192
76,-0.9663117,-0.11557163,-0.108097486,40.763622,-73.92191,0.034876984,-0.018236862,0.013605594,-3.8251727,2.3110912,1490135940906,4.46912616957,0.0,1.0273092787
77,-0.99766964,-0.11733227,-0.08832783,40.763626,-73.92191,0.032272533,-0.040069506,0.014153296,-3.825279,2.3045888,1490135940939,4.46585814429,0.0,1.02856781513
78,-0.9822363,-0.09806753,-0.09069612,40.763626,-73.92191,0.022365537,-0.032823905,0.027611952,-3.825385,2.298087,1490135940973,4.46259725472,0.0,1.02982804298
79,-1.0078226,-0.0909099,-0.057799425,40.763626,-73.92195,0.024770703,-0.043175783,0.017122095,-3.830326,2.2947965,1490135941006,4.46514145831,0.0,1.03102959519
80,-0.9815001,-0.0770667,-0.044633336,40.763626,-73.92195,0.03462496,-0.020675255,0.018041715,-3.8543637,2.3041925,1490135941040,4.49059267903,0.0,1.0319857452
81,-0.98104435,-0.04330737,-0.07429327,40.763626,-73.92195,0.011690563,0.034185357,0.006526494,-3.8784015,2.3135889,1490135941073,4.51604824968,0.0,1.03293105242
82,-0.97116876,-0.06700503,-0.008057092,40.76363,-73.92195,0.01962966,-0.02166815,0.01881428,-3.902439,2.322985,1490135941107,4.54150739942,0.0,1.03386578471
83,-0.9531921,-0.068799585,-0.028200416,40.76363,-73.92195,0.02704921,-0.0074079665,0.020112116,-3.926477,2.3323812,1490135941140,4.56697095389,0.0,1.03479013172
84,-1.0103176,0.0019774048,-0.06525729,40.76363,-73.92195,0.018205365,-0.058165327,0.027897473,-3.9505146,2.3417773,1490135941174,4.5924379721,0.0,1.03570420187
85,-0.96105176,-0.011343628,-0.028047107,40.76363,-73.92195,0.0706535,-0.030384514,0.014676544,-3.9745522,2.3511736,1490135941208,4.61790888692,0.0,1.03660815209
86,-1.0121399,-0.05473169,-0.032146484,40.76363,-73.92195,0.020115562,-0.012448676,-0.005377041,-3.99859,2.36057,1490135941241,4.64338375681,0.0,1.03750218784
87,-1.0092566,-0.06788496,-0.029340697,40.763634,-73.92195,0.036181334,-0.055234298,0.018458543,-4.022628,2.369966,1490135941275,4.66886226693,0.0,1.03838656213
88,-0.97459155,-0.033218507,-0.0238833,40.763634,-73.92195,0.025962735,0.031345196,-0.0053457273,-4.046665,2.379362,1490135941308,4.69434352698,0.0,1.0392612279
89,-1.0233583,-0.06211704,0.003651001,40.763634,-73.92195,0.023929045,-0.03330797,0.0028470166,-4.070703,2.3887584,1490135941342,4.71982940452,0.0,1.04012648291
90,-0.96119374,-0.05558125,-0.03069375,40.763634,-73.92195,0.03298375,0.003395,0.00392375,-4.094741,2.3981545,1490135941375,4.74531862607,0.0,1.04098249771
91,-1.0633949,-0.07157168,0.019394018,40.763638,-73.92195,0.012887366,-0.035413966,-0.0036923706,-4.118778,2.4075508,1490135941409,4.77081052525,0.0,1.04182922299
92,-0.9645025,-0.06248257,-0.009983398,40.763638,-73.92195,0.033387486,0.010075488,0.012697061,-4.1428156,2.416947,1490135941442,4.79630627634,0.0,1.04266702819
93,-1.0497619,-0.06789832,-0.024571044,40.763638,-73.92195,0.0039654714,0.009439627,-0.00903133,-4.166854,2.426343,1490135941476,4.82180594912,0.0,1.04349609219
94,-0.9756338,-0.060689427,0.015982043,40.763638,-73.92195,0.019883558,-0.015185238,0.020383172,-4.1908913,2.4357393,1490135941510,4.847308101,0.0,1.04431626537
95,-1.002679,-0.053064574,-0.014661438,40.763638,-73.92195,0.023964431,0.0015513061,-0.0035191113,-4.214929,2.4451356,1490135941543,4.87281382544,0.0,1.04512789435
96,-1.0050399,-0.06046998,-0.008950012,40.76364,-73.92195,0.0051519508,0.025850018,0.014877999,-4.2389665,2.4545314,1490135941577,4.89832230276,0.0,1.04593113832
97,-1.0257754,-0.06156146,-0.011213953,40.76364,-73.92195,0.014098672,-0.008675163,0.008160965,-4.2630043,2.4639277,1490135941610,4.92383441767,0.0,1.04672600175
98,-1.0060421,-0.06818212,-0.007,40.76364,-73.92195,0.024630835,-0.021714434,0.007931219,-4.287042,2.4733238,1490135941644,4.94934942486,0.0,1.04751269513
99,-0.9583763,-0.055725098,-0.038541235,40.76364,-73.92195,0.009550779,0.0056629665,0.013055258,-4.3110795,2.4827201,1490135941677,4.97486739022,0.0,1.04829126357
100,-1.0180418,-0.048245665,-0.04044586,40.76364,-73.92195,-0.0039316067,-0.028965672,0.016085418,-4.3351173,2.4921165,1490135941711,5.00038865033,0.0,1.04906189772
101,-0.9764087,-0.061869264,0.020014526,40.763645,-73.92195,0.020440489,-0.0038023414,0.0013859412,-4.3591547,2.5015125,1490135941744,5.02591230387,0.0,1.04982473438
102,-1.0176575,-0.06940881,-0.007911499,40.763645,-73.92195,0.015882205,-0.04306234,0.009124902,-4.3831925,2.5109086,1490135941778,5.05143924932,0.0,1.05057988394
103,-0.9762102,-0.06286187,-0.02728335,40.763645,-73.92195,0.014316153,0.008545815,0.035369545,-4.4072304,2.5203047,1490135941812,5.07696913321,0.0,1.05132744909
104,-0.99979,-0.03789663,-0.008315015,40.763645,-73.92195,0.006969634,-0.0327756,0.025109673,-4.431268,2.5297012,1490135941845,5.10250176375,0.0,1.05206743585
105,-0.98625314,-0.05043125,0.00880625,40.76365,-73.92195,0.0072359373,0.021159375,0.012714063,-4.4553056,2.5390973,1490135941879,5.12803696245,0.0,1.05280012115
106,-1.0250258,-0.037012916,-0.001664209,40.76365,-73.92195,0.007610608,-0.06190125,0.020763045,-4.479344,2.5484936,1490135941912,5.15357568098,0.0,1.05352558841
107,-1.0055861,-0.019642334,-0.021262206,40.76365,-73.92195,0.0068638134,0.003983242,0.008675938,-4.5033813,2.5578897,1490135941946,5.17911602984,0.0,1.05424382927
108,-0.99692976,-0.045519922,-0.027590137,40.76365,-73.92195,0.00064714113,-0.022623671,0.007700789,-4.5274186,2.567286,1490135941979,5.20465912288,0.0,1.05495498722
109,-1.0524343,-0.04739392,-0.017363647,40.763653,-73.92201,-0.013495947,0.024995958,0.004096567,-4.541854,2.5729284,1490135942013,5.21999983801,0.0,1.05537880047
110,-0.9775419,-0.04172903,-0.016854273,40.763653,-73.92201,0.017814513,-0.04841336,0.011636223,-4.5418534,2.5729284,1490135942046,5.21999931596,0.0,1.05537874382
111,-1.0110099,-0.015893055,-0.019248756,40.763653,-73.92201,-0.011571953,0.0030970178,0.014027261,-4.541854,2.5729284,1490135942080,5.21999983801,0.0,1.05537880047
112,-1.0205867,-0.04398668,-0.010546643,40.763653,-73.92201,0.006230664,-0.06810938,0.018254327,-4.541854,2.5729284,1490135942114,5.21999983801,0.0,1.05537880047
113,-0.9863175,-0.019420618,-0.03726896,40.763653,-73.92201,-0.001287865,0.009276012,0.007773274,-4.541854,2.5729284,1490135942147,5.21999983801,0.0,1.05537880047
114,-0.9863724,-0.01663501,-0.040758852,40.763657,-73.92201,-0.0062458753,0.0092818905,-0.003105232,-4.541854,2.5729284,1490135942181,5.21999983801,0.0,1.05537880047
115,-1.0047668,-0.034827076,-0.010766797,40.763657,-73.92201,0.00483668,0.036199912,-0.00858253,-4.541854,2.5729284,1490135942214,5.21999983801,0.0,1.05537880047
116,-1.0103106,-0.06433107,-0.04076417,40.763657,-73.92201,0.007355748,-0.038983744,-0.0033201696,-4.541854,2.5729284,1490135942248,5.21999983801,0.0,1.05537880047
117,-1.0063723,-0.061627638,-0.05732561,40.763657,-73.92201,-0.011157725,0.023224803,0.0066947145,-4.541854,2.5729284,1490135942281,5.21999983801,0.0,1.05537880047
118,-1.0291629,-0.03463076,-0.07602099,40.763657,-73.92201,-0.007791079,-0.011840205,0.0059828614,-4.541854,2.5729284,1490135942315,5.21999983801,0.0,1.05537880047
119,-1.0158244,-0.05639187,-0.05432412,40.76366,-73.92201,-0.0058586304,0.0064398805,0.01925271,-4.541854,2.5729284,1490135942348,5.21999983801,0.0,1.05537880047
120,-1.0538,-0.04895,-0.045725,40.76366,-73.92201,0.0026925,-0.0388025,0.021255,-4.541854,2.5729284,1490135942382,5.21999983801,0.0,1.05537880047
121,-1.008931,-0.030886719,-0.06422168,40.76366,-73.92201,0.015148564,-0.04231583,0.033949975,-4.541854,2.5729284,1490135942416,5.21999983801,0.0,1.05537880047
122,-1.0237606,-0.0496958,-0.071,40.76366,-73.92201,0.015320493,-0.0609131,0.022988178,-4.541854,2.5729284,1490135942449,5.21999983801,0.0,1.05537880047
123,-0.9643455,-0.02511382,-0.06728049,40.76366,-73.92201,0.00042105958,-0.0021473754,0.022893133,-4.541854,2.5729284,1490135942483,5.21999983801,0.0,1.05537880047
124,-1.0101417,-0.03735431,-0.07288504,40.763664,-73.92201,0.009601134,-0.012945803,0.004265759,-4.541854,2.5729284,1490135942516,5.21999983801,0.0,1.05537880047
125,-0.9484607,-0.0653581,-0.03604911,40.763664,-73.92201,0.014493281,0.010286762,0.023792144,-4.541854,2.5729284,1490135942550,5.21999983801,0.0,1.05537880047
126,-0.96357745,-0.063907444,-0.08313883,40.763664,-73.92201,-0.015248138,0.0057759765,0.021616016,-4.541854,2.5729284,1490135942583,5.21999983801,0.0,1.05537880047
127,-1.002474,-0.04112417,-0.09871564,40.763664,-73.92201,0.003906278,0.026347978,0.01767844,-4.541854,2.5729284,1490135942617,5.21999983801,0.0,1.05537880047
128,-0.9942033,-0.047863342,-0.095070004,40.763668,-73.92201,0.0059650866,-0.029595573,0.032486983,-4.541854,2.5729284,1490135942650,5.21999983801,0.0,1.05537880047
129,-0.9882152,-0.024688143,-0.099551976,40.763668,-73.92201,-0.005458903,0.007841284,0.009782813,-4.541854,2.5729284,1490135942684,5.21999983801,0.0,1.05537880047
130,-1.0034146,-0.032010436,-0.08493738,40.763668,-73.92201,-0.010547913,0.0058973352,0.010542743,-4.541854,2.5729284,1490135942718,5.21999983801,0.0,1.05537880047
131,-1.0239565,-0.020163648,-0.092672706,40.763668,-73.92201,0.009818724,-0.028591739,0.022292824,-4.541854,2.5729284,1490135942751,5.21999983801,0.0,1.05537880047
132,-1.0051848,-0.017735107,-0.10075256,40.763668,-73.92201,-0.0056130174,0.009230376,0.009751084,-4.541854,2.5729287,1490135942785,5.21999998588,0.0,1.05537875047
133,-1.0204735,-0.015998486,-0.096003026,40.76367,-73.92201,-0.00048217285,-0.012775937,0.012539394,-4.541854,2.5729284,1490135942818,5.21999983801,0.0,1.05537880047
134,-0.9914354,0.0020391112,-0.111081176,40.76367,-73.92201,-0.00783592,0.010379646,0.015859336,-4.541854,2.5729284,1490135942852,5.21999983801,0.0,1.05537880047
135,-1.0232282,-0.015040625,-0.073925,40.76367,-73.92201,-0.0070234374,-0.011585938,-0.0046890625,-4.541854,2.5729284,1490135942885,5.21999983801,0.0,1.05537880047
136,-0.99348664,-0.011268335,-0.101415016,40.76367,-73.92201,0.0104131615,-0.033856016,0.0114128245,-4.541854,2.5729284,1490135942919,5.21999983801,0.0,1.05537880047
137,-0.9644856,-0.0072697755,-0.10894605,40.76367,-73.92201,-0.01142169,0.023147667,-0.008734345,-4.541854,2.5729284,1490135942952,5.21999983801,0.0,1.05537880047
138,-0.9882276,-0.036286596,-0.08306973,40.763676,-73.92201,-0.017528428,0.003829099,-0.009056072,-4.541854,2.5729284,1490135942986,5.21999983801,0.0,1.05537880047
139,-0.9794346,-0.027837768,-0.09166101,40.763676,-73.922066,-0.020204779,-0.034635987,0.014652202,-4.5477867,2.5786705,1490135943020,5.22799248434,0.0,1.05498248972
140,-0.9460417,-0.014666797,-0.10435423,40.763676,-73.922066,-0.006792278,0.013047035,-0.005052965,-4.5577264,2.5882905,1490135943053,5.24138508885,0.0,1.05432127704
141,-1.0329318,-0.028676795,-0.08094124,40.763676,-73.922066,-0.021558195,-0.055983473,0.010458486,-4.5676656,2.5979106,1490135943087,5.25477958805,0.0,1.05366337147
142,-0.9353945,-0.00066541746,-0.11296627,40.76368,-73.922066,-0.030668482,0.0026273744,0.020154858,-4.577605,2.6075304,1490135943120,5.26817637546,0.0,1.05300887994
143,-1.092611,-0.008061462,-0.068159804,40.76368,-73.922066,-0.01970789,-0.046808396,-0.008482387,-4.5875444,2.6171503,1490135943154,5.28157545764,0.0,1.05235769249
144,-0.93821985,0.0014900513,-0.09480005,40.76368,-73.922066,-0.023030035,0.004894325,0.015501969,-4.5974836,2.6267703,1490135943187,5.29497664407,0.0,1.05170976588
145,-1.0267981,-0.00852915,-0.10692379,40.76368,-73.922066,-0.03779993,0.023964185,-0.030781105,-4.607423,2.6363902,1490135943221,5.30838016608,0.0,1.05106514603
146,-1.0021838,-0.0038644408,-0.046862315,40.763683,-73.922066,0.0018282398,-0.04874287,-0.0018736951,-4.6173625,2.64601,1490135943254,5.32178591983,0.0,1.05042379918
147,-0.97047853,0.016384399,-0.10552424,40.763683,-73.922066,-0.045568712,0.058693472,-0.03518855,-4.627302,2.6556296,1490135943288,5.33519375202,0.0,1.04978570814
148,-1.0338432,-0.021417432,-0.07722739,40.763683,-73.922066,-0.028386846,0.037953004,-0.036076758,-4.6372414,2.6652496,1490135943322,5.34860385822,0.0,1.04915074233
149,-1.008052,-0.03415708,-0.1003927,40.763683,-73.922066,-0.0142185185,-0.062285863,-0.0040697143,-4.6471806,2.6748695,1490135943355,5.36201588687,0.0,1.04851895035
150,-0.95,-0.01558125,-0.108025,40.763687,-73.922066,-0.046579376,0.06167375,-0.018691875,-4.6571198,2.6844893,1490135943389,5.37542999521,0.0,1.04789032746
151,-1.0410943,-0.03171692,-0.09377356,40.763687,-73.922066,-0.025022527,-0.014717073,-0.014465713,-4.667059,2.6941092,1490135943422,5.38884626715,0.0,1.04726481833
152,-0.9346237,-0.054761574,-0.18795976,40.763687,-73.922066,-0.032166377,0.036719278,0.0059265625,-4.6769986,2.7037292,1490135943456,5.40226503342,0.0,1.04664243732
153,-0.97984964,0.014415894,-0.11136992,40.763687,-73.922066,-0.062453922,-0.018661737,-0.009316558,-4.6869383,2.713349,1490135943489,5.41568586827,0.0,1.04602318198
154,-1.0064794,-0.0049691773,-0.07652059,40.76369,-73.922066,-0.012589279,-0.0134736085,-0.015524384,-4.6968775,2.7229686,1490135943523,5.42910823677,0.0,1.04540697417
155,-0.9528456,-0.009162158,-0.1834807,40.76369,-73.922066,-0.042739227,-0.013597378,-0.017276544,-4.7068167,2.7325888,1490135943556,5.44253295785,0.0,1.04479371063
156,-1.009355,-0.0818225,-0.09069247,40.76369,-73.922066,-0.008338562,0.036324024,-0.0074635376,-4.716756,2.7422085,1490135943590,5.4559595509,0.0,1.04418355371
157,-0.99048775,-0.0034989624,-0.100509755,40.76369,-73.922066,0.003339751,-0.05614166,0.010698092,-4.7266955,2.7518284,1490135943624,5.46938843864,0.0,1.04357637951
158,-0.96362585,-0.034644164,-0.07106122,40.763695,-73.922066,-0.05661547,0.04626902,-0.002477982,-4.7366347,2.7614484,1490135943657,5.48281912406,0.0,1.04297213649
159,-1.0132357,-0.016743079,-0.07579198,40.763695,-73.922066,-0.00651412,-0.015977737,-0.023560433,-4.7465744,2.7710683,1490135943691,5.4962521829,0.0,1.04237090832
160,-0.9696664,-0.013800159,-0.09620033,40.763695,-73.922066,-0.034833234,0.012458441,0.006074957,-4.7565136,2.7806883,1490135943724,5.50968683763,0.0,1.04177255059
161,-0.969432,-0.0020098998,-0.1219604,40.763695,-73.922066,-0.025104906,0.0030499145,-0.019101227,-4.766453,2.790308,1490135943758,5.52312347645,0.0,1.04117716918
162,-1.00022,-0.009890039,-0.08599612,40.7637,-73.922066,-0.014521411,-0.017231131,-0.02354288,-4.7763925,2.799928,1490135943791,5.53656230158,0.0,1.04058464022
163,-0.95890826,-0.026098095,-0.08713291,40.7637,-73.922066,-0.033989355,0.019394629,-0.011622144,-4.7863317,2.8095477,1490135943825,5.55000265054,0.0,1.03999500023
164,-1.0045458,-0.009452417,-0.12956016,40.7637,-73.922066,-0.011518069,0.014166555,-0.033364184,-4.7962713,2.8191676,1490135943858,5.56344536597,0.0,1.03940821482
165,-0.98029685,-0.00190625,-0.098484375,40.7637,-73.922066,-0.032669686,0.026699062,0.0028759376,-4.80621,2.8287876,1490135943892,5.57688926284,0.0,1.03882416112
166,-1.0383735,-0.03839419,-0.09582988,40.763702,-73.922066,-0.041979503,0.005740818,-0.018268423,-4.8161497,2.8384073,1490135943925,5.59033576214,0.0,1.03824305379
167,-1.0254695,-0.051714014,-0.11566377,40.763702,-73.922066,-0.016717138,-0.01872064,0.0026855078,-4.8260894,2.8480272,1490135943959,5.60378424181,0.0,1.0376647047
168,-1.062405,-0.05635996,-0.1400551,40.763702,-73.922066,-0.056675185,-0.023900183,0.021754455,-4.836028,2.8576472,1490135943993,5.61723369075,0.0,1.03708901016
169,-0.99644786,-0.05754973,-0.10638865,40.763706,-73.922134,-0.0180427,0.0029332812,0.023896324,-4.841814,2.8662972,1490135944026,5.62661731854,0.0,1.03628861534
170,-0.9735894,0.0025245606,-0.08709627,40.763706,-73.922134,-0.039772987,0.03516384,0.005572986,-4.846525,2.8746967,1490135944060,5.63495214644,0.0,1.03543180797
171,-0.9862375,0.02265326,-0.117752865,40.763706,-73.922134,-0.033562493,-0.038695592,0.0034586596,-4.851236,2.883096,1490135944093,5.64329099665,0.0,1.03457756261
172,-0.9323767,-0.0039799805,-0.09002502,40.763706,-73.922134,-0.012898387,-0.03974668,-0.02057957,-4.8559465,2.8914955,1490135944127,5.65163362554,0.0,1.03372576304
173,-0.96508527,-0.0015819214,-0.07782288,40.76371,-73.922134,-0.017908284,-0.022075053,-0.03502784,-4.8606577,2.899895,1490135944160,5.6599809441,0.0,1.0328765385
174,-0.9198076,0.004828845,-0.0041039917,40.76371,-73.922134,-0.0077749514,0.0074324976,-0.019571006,-4.8653684,2.9082942,1490135944194,5.66833174942,0.0,1.03202981592
175,-0.95001036,-0.005927368,-0.12616265,40.76371,-73.922134,-0.01032074,0.019924652,-0.035431117,-4.870079,2.9166937,1490135944227,5.67668667498,0.0,1.03118553073
176,-1.0258069,-0.057959862,-0.06925626,40.763714,-73.922134,-0.054495797,0.022668315,-0.027706476,-4.87479,2.925093,1490135944261,5.68504587517,0.0,1.03034379408
177,-1.001468,-0.03532622,-0.079902954,40.763714,-73.922134,-0.008147094,-0.012367968,-0.0012315674,-4.879501,2.9334922,1490135944295,5.69340903997,0.0,1.0295045448
178,-0.9969847,-0.04173208,-0.11739248,40.763714,-73.922134,-0.0322353,-0.07143786,-0.008437056,-4.8842115,2.9418917,1490135944328,5.70177592959,0.0,1.02866766775
179,-1.0007161,-0.054752443,-0.09475525,40.763714,-73.922134,-0.016043186,0.01586294,-0.021270279,-4.8889227,2.9502907,1490135944362,5.71014714181,0.0,1.02783338209
180,-1.1011125,-0.0999125,-0.1187875,40.763718,-73.922134,-0.040315,-0.05514875,0.01239375,-4.8936334,2.9586902,1490135944395,5.71852214765,0.0,1.02700141954
181,-1.0472785,-0.095479004,-0.05323479,40.763718,-73.922134,-0.011441294,-0.051369715,0.059487853,-4.898344,2.9670897,1490135944429,5.72690101453,0.0,1.02617188183
182,-0.96131945,0.028068604,-0.08394072,40.763718,-73.922134,-0.029257983,0.016840331,0.012112671,-4.903055,2.975489,1490135944462,5.73528404895,0.0,1.02534483448
183,-1.0376608,-0.026400317,-0.024786768,40.76372,-73.922134,-0.0659159,0.04312458,0.01814685,-4.907766,2.9838884,1490135944496,5.74367104685,0.0,1.02452018701
184,-0.9637816,-0.009319726,-0.0573271,40.76372,-73.922134,-0.01661436,-0.02164781,0.0002570923,-4.9124765,2.9922876,1490135944529,5.75206140824,0.0,1.02369792939
185,-0.93611807,0.05900963,-0.062035084,40.76372,-73.922134,-0.024159104,-0.009359535,-0.028854562,-4.917187,3.0006866,1490135944563,5.76045554313,0.0,1.02287809728
186,-0.9577726,-0.043,-0.0614574,40.76372,-73.922134,0.019709349,-0.043564335,-0.01954075,-4.921898,3.0090861,1490135944597,5.76885422589,0.0,1.02206062281
187,-1.0329322,-0.028033765,-0.08452814,40.763725,-73.922134,-0.043503597,0.03506084,-0.01617417,-4.926609,3.0174856,1490135944630,5.77725675257,0.0,1.02124552569
188,-0.9378575,-0.010888501,-0.11178989,40.763725,-73.922134,-0.008353975,-0.050086502,-0.0052239248,-4.9313197,3.0258849,1490135944664,5.7856627461,0.0,1.02043279899
189,-1.0067674,-0.04376743,-0.10148506,40.763725,-73.922134,0.0052511473,-0.011163116,-0.015836205,-4.936031,3.0342846,1490135944697,5.79407327074,0.0,1.01962242644
190,-1.019448,-0.07979194,-0.03454126,40.76373,-73.922134,-0.037409212,0.009908259,-0.0016427063,-4.9407415,3.0426838,1490135944731,5.80248664597,0.0,1.01881440471
191,-0.9883277,-0.03383081,-0.070657164,40.76373,-73.922134,-0.004948473,-0.09090238,0.0065946886,-4.945452,3.051083,1490135944764,5.81090379865,0.0,1.01800872332
192,-0.9997998,-0.057919823,-0.07762014,40.76373,-73.922134,0.000566167,-0.03706195,-0.018083034,-4.950163,3.0594826,1490135944798,5.81932534803,0.0,1.01720535984
193,-1.0094551,-0.14435083,-0.032557372,40.76373,-73.922134,-0.011511211,-0.038639918,0.0034005274,-4.954874,3.0678818,1490135944831,5.82775043174,0.0,1.01640437709
194,-1.0442624,-0.029447192,-0.056496996,40.763733,-73.922134,-0.025339874,0.042304344,0.018485632,-4.9595847,3.076281,1490135944865,5.83617898864,0.0,1.01560568034
195,-0.9857375,-0.001290625,-0.08340625,40.763733,-73.922134,-0.017642813,-0.060746875,0.016662812,-4.9642954,3.0846803,1490135944899,5.84461131057,0.0,1.01480927318
196,-0.9890893,-0.106876,-0.1168501,40.763733,-73.922134,0.0008822022,0.022995202,-0.016667211,-4.9690065,3.0930798,1490135944932,5.85304777413,0.0,1.01401516835
197,-0.9931917,-0.08361548,-0.056680128,40.763737,-73.922134,-0.0032489698,-0.012397461,0.012978276,-4.973717,3.101479,1490135944966,5.86148725014,0.0,1.0132233392
198,-0.97488904,0.03719165,-0.11481336,40.763737,-73.922134,-0.008746453,0.002439287,0.015089802,-4.978428,3.1098783,1490135944999,5.86993086774,0.0,1.01243381813
199,-0.9822977,-0.016631458,-0.10423368,40.763737,-73.9222,0.023488892,-0.04576791,0.0017674316,-5.00101,3.1266031,1490135945033,5.8979443847,0.0,1.0120572802
200,-0.9678667,-0.044966552,-0.07163355,40.763737,-73.9222,0.0029514087,-0.037828367,-0.0050748903,-5.0237393,3.1433969,1490135945066,5.92612020004,0.0,1.0116876164
201,-0.9660681,-0.048387453,-0.053554982,40.76374,-73.9222,-0.0006188232,-0.013387309,-0.0078774905,-5.0464687,3.1601908,1490135945100,5.95429695535,0.0,1.01132144584
202,-1.0099095,-0.013142956,-0.08791539,40.76374,-73.9222,0.0021348083,-0.02160121,0.00060378294,-5.0691986,3.1769845,1490135945133,5.98247481896,0.0,1.01095879728
203,-0.9764471,-0.041674793,-0.069577284,40.76374,-73.9222,0.007025507,-0.020914111,-0.011596087,-5.091928,3.193778,1490135945167,6.01065293213,0.0,1.01059953294
204,-0.9988775,-0.04399254,-0.06163258,40.76374,-73.9222,-0.0048327427,-0.004030338,-0.015784465,-5.1146574,3.2105718,1490135945201,6.03883197335,0.0,1.01024357934
205,-1.0004834,-0.05835956,-0.052117858,40.76374,-73.9222,0.004832644,-0.025114506,0.012791447,-5.137387,3.2273655,1490135945234,6.06701188876,0.0,1.00989096382
206,-1.0358218,-0.085009865,-0.059683107,40.763744,-73.9222,0.019252634,-0.072904296,0.0047913743,-5.1601167,3.2441592,1490135945268,6.09519263621,0.0,1.00954161757
207,-0.9487843,-0.048470583,-0.04547058,40.763744,-73.9222,-0.007378945,0.013030616,0.012375566,-5.182846,3.2609527,1490135945301,6.12337367563,0.0,1.00919547971
208,-1.0345935,-0.04615322,-0.05737998,40.763744,-73.9222,-0.014832002,-0.0022323583,0.0038946094,-5.2055755,3.2777464,1490135945335,6.15155571778,0.0,1.00885250311
209,-0.9752867,-0.06762544,-0.05410752,40.763744,-73.9222,0.022008738,-0.045777854,0.019737313,-5.228305,3.2945402,1490135945368,6.17973853026,0.0,1.00851264107
210,-0.96633124,-0.03376875,-0.0898625,40.763744,-73.9222,0.005140625,0.0293375,-0.000146875,-5.2510347,3.3113341,1490135945402,6.20792227258,0.0,1.00817586846
211,-1.0229036,-0.011893799,-0.025138037,40.76375,-73.9222,-0.010724341,0.024886418,0.0026332715,-5.2737646,3.3281279,1490135945435,6.23610682838,0.0,1.00784217061
212,-1.0297416,-0.056031737,-0.10825757,40.76375,-73.9222,0.017666958,-0.028039252,0.015136255,-5.296494,3.3449216,1490135945469,6.2642915962,0.0,1.00751144644
213,-0.9781256,-0.05038496,-0.0757782,40.76375,-73.9222,-0.0054755616,0.0022556444,0.01002387,-5.3192234,3.361715,1490135945503,6.29247688278,0.0,1.00718372533
214,-1.0095521,-0.038498595,-0.057,40.76375,-73.9222,-0.011865485,0.02187288,0.012215846,-5.3419523,3.3785086,1490135945536,6.32066252348,0.0,1.00685885798
215,-1.0016097,-0.057156276,-0.09171337,40.763752,-73.9222,0.016356174,-0.047634114,0.026515994,-5.364682,3.3953023,1490135945570,6.3488495548,0.0,1.00653692924
216,-0.99018985,-0.02993999,-0.08187506,40.763752,-73.9222,-0.0055340184,0.013786539,-0.0016409692,-5.3874116,3.412096,1490135945603,6.37703715381,0.0,1.00621783805
217,-0.9948682,-0.05172567,-0.069837295,40.763752,-73.9222,0.010616016,-0.028725391,0.008762988,-5.4101415,3.42889,1490135945637,6.40522581039,0.0,1.00590154086
218,-0.9959992,-0.01408501,-0.09673378,40.763752,-73.9222,-0.003075332,0.05127552,-0.0037631884,-5.432871,3.4456837,1490135945670,6.4334146037,0.0,1.00558802156
219,-0.9810165,-0.04683386,-0.07350757,40.763752,-73.9222,0.019234102,-0.06912685,-0.0013364941,-5.4556007,3.4624774,1490135945704,6.46160419272,0.0,1.00527725433
220,-0.96674174,-0.028733203,-0.07925828,40.763756,-73.9222,0.007984428,0.043610383,-0.018298335,-5.47833,3.4792712,1490135945737,6.48979411631,0.0,1.00496914083
221,-1.0042064,-0.025712231,-0.08197676,40.763756,-73.9222,-0.013419267,0.0028440382,-0.0015143738,-5.50106,3.4960647,1490135945771,6.51798508054,0.0,1.00466378896
222,-0.97319394,-0.05838506,-0.093548365,40.763756,-73.9222,0.010566972,0.010410584,0.0043402025,-5.523789,3.5128584,1490135945805,6.54617591079,0.0,1.00436095934
223,-1.0343704,-0.056986574,-0.039845068,40.763756,-73.9222,0.0034154737,-0.04148447,-0.0017050782,-5.5465183,3.529652,1490135945838,6.57436753561,0.0,1.00406076414
224,-0.95052004,-0.063546605,-0.13374656,40.76376,-73.9222,-0.0020602904,0.059418786,0.01148634,-5.569248,3.5464456,1490135945872,6.60256008524,0.0,1.00376316506
225,-1.0129625,-0.0409375,-0.048284374,40.76376,-73.9222,-0.011148125,-0.021344375,0.002093125,-5.5919776,3.5632393,1490135945905,6.63075318406,0.0,1.00346807583
226,-0.9503867,-0.019317994,-0.07378625,40.76376,-73.9222,0.008711951,-0.011850068,0.016805578,-5.614707,3.580033,1490135945939,6.65894668675,0.0,1.00317546922
227,-1.0228693,-0.05587959,-0.06942143,40.76376,-73.9222,0.0141734965,-0.045128495,-0.010124482,-5.637437,3.5968268,1490135945972,6.68714131436,0.0,1.0028853656
228,-0.9975527,-0.045267407,-0.118147485,40.763763,-73.92227,-0.012356692,0.05227731,0.004858704,-5.6567745,3.6110234,1490135946006,6.71107947645,0.0,1.00265187001
229,-1.0101565,-0.020095948,-0.068590924,40.763763,-73.92227,-0.006835906,0.0066564805,0.012289317,-5.661583,3.6140924,1490135946039,6.71678389868,0.0,1.00265193579
230,-0.97205496,0.0008289217,-0.12297353,40.763763,-73.92227,-0.0074777994,0.008573814,0.013237384,-5.6663904,3.6171618,1490135946073,6.72248760896,0.0,1.00265186326
231,-0.9864087,-0.04680187,-0.08360996,40.763763,-73.92227,0.0074511487,-0.003489367,-0.0066096745,-5.671199,3.620231,1490135946107,6.7281922231,0.0,1.00265191187
232,-0.999175,-0.038669996,-0.08144333,40.763767,-73.92227,0.018130349,-0.0008802014,0.0048174867,-5.6760073,3.6233003,1490135946140,6.73389663818,0.0,1.00265192392
233,-0.9784506,-0.028659362,-0.14501089,40.763767,-73.92227,-0.01724864,-0.00015136719,0.014682476,-5.6808147,3.6263695,1490135946174,6.73960024084,0.0,1.00265187659
234,-0.9897199,-0.06725493,-0.082181334,40.763767,-73.92227,0.007199807,-0.03131209,0.014876886,-5.685623,3.6294389,1490135946207,6.74530470972,0.0,1.00265187615
235,-0.9972292,-0.030361267,-0.11398419,40.76377,-73.92227,0.008498459,-0.010222235,0.011671166,-5.6904316,3.632508,1490135946241,6.75100927005,0.0,1.00265193707
236,-0.9496713,-0.038556065,-0.17499302,40.76377,-73.92227,-0.00036430298,0.012687887,0.004686842,-5.6952395,3.6355772,1490135946274,6.75671329416,0.0,1.00265192968
237,-1.0163301,-0.029322144,-0.12366687,40.76377,-73.92227,-0.018690998,0.021891411,-0.0017349169,-5.7000475,3.6386466,1490135946308,6.76241751018,0.0,1.00265190532
238,-0.9897157,-0.02196626,-0.1120481,40.76377,-73.92227,0.003755659,-0.03667305,-0.00042980956,-5.704856,3.641716,1490135946341,6.76812214764,0.0,1.00265192075
239,-0.9551368,-0.03608916,-0.09653496,40.763775,-73.92227,0.024956604,-0.0257,-0.013022901,-5.709664,3.6447854,1490135946375,6.77382636366,0.0,1.00265189644
240,-1.0113,-0.04,-0.0836,40.763775,-73.92227,-0.013325,-0.024725,-0.0025,-5.714472,3.6478543,1490135946409,6.77953031063,0.0,1.00265193434
241,-1.040938,-0.05295359,-0.103241526,40.763775,-73.92227,0.024057847,-0.09540605,0.0268801,-5.7192802,3.6509237,1490135946442,6.78523469523,0.0,1.00265192592
242,-0.9545371,-0.080841064,-0.13361938,40.76378,-73.92227,-0.021372007,0.030913042,0.011667481,-5.7240877,3.6539931,1490135946476,6.79093848979,0.0,1.00265186205
243,-1.0529417,-0.03653069,-0.08406443,40.76378,-73.92227,-0.0073361597,-0.078155205,0.02932402,-5.728896,3.657062,1490135946509,6.79664268964,0.0,1.00265192363
244,-0.9656433,-0.0029076538,-0.09776752,40.76378,-73.92227,0.01185906,-0.019162314,0.021364123,-5.7337036,3.660131,1490135946543,6.80234635327,0.0,1.00265191735
245,-0.96032804,-0.023718579,-0.09795336,40.76378,-73.92227,-0.020603575,-0.0087689925,-0.018895987,-5.738512,3.6632004,1490135946576,6.80805090644,0.0,1.00265192478
246,-0.9931562,-0.05203878,-0.091974854,40.763783,-73.92227,-0.007724951,-0.076311216,0.027533269,-5.7433205,3.6662698,1490135946610,6.81375554391,0.0,1.00265194009
247,-0.96522856,0.011193493,-0.11546148,40.763783,-73.92227,-0.0041501466,-0.01234292,-0.0014078491,-5.7481284,3.6693392,1490135946643,6.81945967563,0.0,1.00265190804
248,-1.0074368,-0.07784828,-0.04266505,40.763783,-73.92227,-0.0037596654,-0.022754254,-0.012243139,-5.752937,3.6724086,1490135946677,6.82516439738,0.0,1.00265193122
249,-0.9836828,0.002583191,-0.11478692,40.763786,-73.92227,0.014557424,-0.07374789,0.022020953,-5.757745,3.675478,1490135946710,6.8308686134,0.0,1.00265190711
250,-1.0084984,0.024504077,-0.10446641,40.763786,-73.92227,-0.016221097,0.038273737,-0.037847165,-5.7625523,3.678547,1490135946744,6.83657202415,0.0,1.00265187726
251,-0.99833435,-0.02758507,-0.11321365,40.763786,-73.92227,0.0021485363,-0.017778594,-0.032277305,-5.7673607,3.681616,1490135946778,6.8422763621,0.0,1.00265193396
252,-1.0061826,-0.08231992,-0.07635513,40.763786,-73.92227,0.014249856,-0.028162137,-0.006402854,-5.772169,3.6846855,1490135946811,6.84798088479,0.0,1.00265192117
253,-0.98222446,-0.075877585,-0.083285645,40.76379,-73.92227,-0.011692573,-0.052995205,0.007838687,-5.7769766,3.6877549,1490135946845,6.85368476365,0.0,1.00265186574
254,-1.0334495,-0.11185923,-0.09678552,40.76379,-73.92227,0.0008089111,-0.0049957884,0.015128162,-5.781785,3.690824,1490135946878,6.8593891554,0.0,1.00265191002
255,-0.94100624,-0.0290625,-0.078625,40.76379,-73.92227,0.017958438,-0.057025626,0.052474063,-5.7865934,3.693893,1490135946912,6.86509349335,0.0,1.0026519665
256,-0.95427674,-0.009780029,-0.074203245,40.763794,-73.92227,-0.028299348,0.03219198,0.017794615,-5.791401,3.6969624,1490135946945,6.8707973722,0.0,1.00265191118
257,-0.94447386,0.014379248,-0.053746436,40.763794,-73.92227,0.020132838,-0.017376529,-0.0024447753,-5.7962093,3.7000315,1490135946979,6.87650167966,0.0,1.00265194748
258,-0.9951029,-0.057342723,-0.10935354,40.763794,-73.92234,-0.02904828,0.024753734,0.0025282567,-5.7984757,3.7029667,1490135947012,6.87999148436,0.0,1.00246959212
259,-0.99825686,0.04227217,-0.0958578,40.763798,-73.92234,0.00064559816,0.0400291,-0.021695184,-5.7967105,3.7056894,1490135947046,6.8799699527,0.0,1.00199796657
260,-1.0797757,-0.054287463,-0.14765035,40.763798,-73.92234,0.018365715,-0.082894325,-0.0046851514,-5.7949452,3.708412,1490135947080,6.87994981324,0.0,1.00152634257
261,-0.9872749,0.053620324,-0.07195378,40.763798,-73.92234,0.015219007,-0.009444739,-0.008747113,-5.793181,3.7111347,1490135947113,6.87993218428,0.0,1.00105478993
262,-1.0132121,0.020205883,-0.09524668,40.763798,-73.92234,0.0020342688,0.032291196,-0.049791727,-5.7914157,3.7138572,1490135947147,6.87991505123,0.0,1.00058317314
263,-1.0443813,-0.005790039,-0.072629824,40.7638,-73.92234,0.015639424,-0.020521622,-0.0302323,-5.7896504,3.7165797,1490135947180,6.87989944844,0.0,1.0001115541
264,-0.9612398,-0.06509006,-0.11540504,40.7638,-73.92234,0.0064699464,0.008315003,-0.02910905,-5.7878857,3.7193022,1490135947214,6.87988588068,0.0,0.99963998018
265,-0.9703553,-0.040922057,-0.0847166,40.7638,-73.92234,-0.014507287,0.010823967,-0.047876034,-5.7861204,3.722025,1490135947247,6.87987350058,0.0,0.999168320647
266,-1.0068239,-0.09835915,-0.088390835,40.763805,-73.92234,0.019580286,-0.03825521,-0.016150147,-5.784356,3.7247477,1490135947281,6.87986335354,0.0,0.998696742567
267,-0.95305264,-0.09400564,-0.10007144,40.763805,-73.92234,-0.0040287185,-0.009113088,-0.006063159,-5.782591,3.72747,1490135947314,6.87985401547,0.0,0.998225164817
268,-0.9624891,-0.067917526,-0.1072417,40.763805,-73.92234,-0.030166382,0.028066382,0.0051727295,-5.7808256,3.7301927,1490135947348,6.87984608816,0.0,0.997753505516
269,-0.97073716,-0.04706062,-0.09410088,40.76381,-73.92234,0.005670801,-0.03943116,0.01990531,-5.7790604,3.7329152,1490135947382,6.87983975084,0.0,0.997281885425
270,-0.9491562,-0.026375,-0.09684375,40.76381,-73.92234,-0.023313126,0.070389375,0.011239375,-5.7772956,3.7356377,1490135947415,6.87983527967,0.0,0.996810296139
271,-1.0393957,0.0020222412,-0.08349248,40.76381,-73.92234,0.020542799,-0.09438953,6.647949e-05,-5.775531,3.7383604,1490135947449,6.87983261513,0.0,0.996338697738
272,-0.97438645,-0.034999754,-0.043213673,40.763813,-73.92234,0.020423647,-0.03441963,0.007970942,-5.7737656,3.7410827,1490135947482,6.87983059181,0.0,0.995867084638
273,-0.79600894,0.17677678,-0.013253296,40.763813,-73.92234,-0.09825907,0.19330385,-0.05545265,-5.7720003,3.7438054,1490135947516,6.87983040025,0.0,0.995395430497
274,-1.1333566,-0.037650574,-0.102397904,40.763813,-73.92234,0.06222857,-0.13128564,-0.08556239,-5.770235,3.7465277,1490135947549,6.87983152135,0.0,0.994923825198
275,-0.96207213,-0.09647848,-0.08507993,40.763817,-73.92234,0.014814764,0.031732917,-0.027257703,-5.768471,3.7492504,1490135947583,6.87983548057,0.0,0.994452274384
276,-0.9968827,0.08940299,-0.10805005,40.763817,-73.92234,0.044021245,-0.11275313,-0.020100698,-5.7667055,3.7519732,1490135947616,6.87983976683,0.0,0.993980593131
277,-0.98836535,-0.1020777,-0.18457532,40.763817,-73.92234,-0.0067705945,0.18684644,-0.054691546,-5.7649407,3.7546957,1490135947650,6.87984600657,0.0,0.993509004638
278,-0.9259457,-0.14960544,-0.036655128,40.763817,-73.92234,-0.0052664904,-0.030476911,0.002439928,-5.7631755,3.7574182,1490135947684,6.87985344128,0.0,0.993037385352
279,-0.9014901,-0.08316235,-0.06949451,40.76382,-73.92234,-0.009521475,0.16913477,0.007600275,-5.76141,3.760141,1490135947717,6.87986231897,0.0,0.992565706841
280,-1.0677413,-0.0633335,-0.18864924,40.76382,-73.92234,-0.03172848,-0.09645528,0.017645942,-5.7596455,3.7628632,1490135947751,6.8798732363,0.0,0.992094182162
281,-0.92660224,-0.032151185,-0.043853406,40.76382,-73.92234,0.022683108,0.09667247,-0.012010851,-5.7578807,3.765586,1490135947784,6.87988576059,0.0,0.991622562229
282,-1.123088,-0.15139163,-0.25304145,40.763824,-73.92234,0.012777722,0.034374535,0.0057192873,-5.7561154,3.7683084,1490135947818,6.87989917772,0.0,0.991150952955
283,-1.2140734,-0.08026836,-0.049979396,40.763824,-73.92234,-0.07028617,-0.15094528,0.059344575,-5.7543507,3.7710311,1490135947851,6.87991479132,0.0,0.990679356956
284,-1.1600808,-0.21615332,-0.2417981,40.763824,-73.92234,0.07361574,-0.0050309426,0.083211444,-5.7525854,3.7737534,1490135947885,6.87993121392,0.0,0.99020776398
285,-0.7908813,0.17876562,-0.07973125,40.76383,-73.92234,-0.12350844,0.0868675,0.075737186,-5.75082,3.7764761,1490135947918,6.87994930259,0.0,0.989736116783
286,-1.0786005,0.029974194,0.028339721,40.76383,-73.92234,0.0950083,-0.4208384,0.029225469,-5.749055,3.7791986,1490135947952,6.8799691461,0.0,0.989264528399
287,-1.1875801,-0.08956133,-0.18328969,40.76383,-73.92234,0.011186987,-0.10568396,0.014907861,-5.74729,3.7819211,1490135947986,6.87999051967,0.0,0.988792942841
288,-0.77580225,-0.02067959,-0.023300048,40.763832,-73.92241,0.027784465,-0.1363601,0.037975922,-5.7478657,3.7839155,1490135948019,6.8815678894,0.0,0.988596826686
289,-1.0301527,-0.03497013,-0.060954187,40.763832,-73.92241,0.010110992,-0.21236336,0.040103607,-5.750108,3.7853916,1490135948053,6.88425243414,0.0,0.988596831945
290,-0.9335451,-0.081522055,-0.06372554,40.763832,-73.92241,0.006262222,-0.06923734,0.021954088,-5.7523503,3.7868676,1490135948086,6.8869369239,0.0,0.988596849329
291,-0.89484185,0.09142596,-0.07004846,40.763836,-73.92241,0.027502295,-0.118083626,0.027301429,-5.7545924,3.7883437,1490135948120,6.8896213016,0.0,0.988596838613
292,-1.1408532,0.028514966,0.032107335,40.763836,-73.92241,-0.030628322,-0.12815867,-0.039981887,-5.7568345,3.7898197,1490135948153,6.89230562431,0.0,0.988596840025
293,-0.88784367,-0.069091335,-0.07210332,40.763836,-73.92241,0.08429223,-0.0491574,-0.04721311,-5.7590766,3.7912955,1490135948187,6.89498983705,0.0,0.988596865663
294,-1.0490304,-0.08707258,0.010586585,40.76384,-73.92241,-0.086359404,-0.0008290283,0.0037489075,-5.7613187,3.7927718,1490135948220,6.89767432472,0.0,0.988596830735
295,-1.0741872,0.043860022,-0.14623022,40.76384,-73.92241,0.06899729,-0.071599655,0.044572826,-5.7635612,3.7942479,1490135948254,6.90035903651,0.0,0.988596851918
296,-1.2285571,-0.19691235,-0.012934265,40.76384,-73.92241,-0.06390079,0.018396799,0.02590669,-5.765803,3.795724,1490135948288,6.90304316363,0.0,0.988596817326
297,-0.94616646,0.08355881,-0.19090362,40.763844,-73.92241,-0.03941488,0.12574406,0.060096562,-5.768045,3.7971997,1490135948321,6.90572723786,0.0,0.988596847066
298,-1.0439875,0.047433592,-0.10963721,40.763844,-73.92241,0.029327007,-0.29180354,0.023939516,-5.770287,3.798676,1490135948355,6.908411642,0.0,0.98859680424
299,-1.0930564,-0.1278706,-0.003834839,40.763844,-73.92241,-0.030428234,0.122608446,-0.0008368457,-5.772529,3.8001518,1490135948388,6.91109577121,0.0,0.988596821877
300,-0.8739125,-0.002275,-0.0642125,40.763844,-73.92241,0.02541375,-0.07086375,0.0287575,-5.7747717,3.8016276,1490135948422,6.9137804851,0.0,0.988596895171
301,-0.87266254,0.0127080325,-0.04304021,40.763847,-73.92241,-0.055596776,0.13095774,0.018022303,-5.777013,3.8031034,1490135948455,6.91646402964,0.0,0.988596857108
302,-0.8726891,-0.008257763,-0.04256416,40.763847,-73.92241,-0.004871626,0.07408036,0.009349878,-5.779255,3.8045797,1490135948489,6.91914843378,0.0,0.988596814345
303,-0.9866383,-0.027660156,-0.10827429,40.763847,-73.92241,-0.0068780053,0.05211711,0.01066032,-5.7814975,3.806056,1490135948522,6.92183325555,0.0,0.988596811335
304,-0.8993263,-0.012,-0.08466638,40.76385,-73.92241,-0.00925765,-0.043828145,0.016743688,-5.7837396,3.8075318,1490135948556,6.92451746829,0.0,0.988596836875
305,-0.98929876,0.014286316,-0.1370083,40.76385,-73.92241,-0.019409858,0.028137717,0.003166615,-5.785982,3.809008,1490135948590,6.92720215155,0.0,0.988596837978
306,-1.0161499,-0.031147437,-0.135715,40.76385,-73.92241,0.0051299804,-0.0057534873,-0.0019845557,-5.7882237,3.810484,1490135948623,6.92988614015,0.0,0.988596807643
307,-1.0203874,-0.015232105,-0.10970332,40.763855,-73.92241,-0.012116459,-0.025009744,0.0072096693,-5.790466,3.8119597,1490135948657,6.93257046496,0.0,0.988596861067
308,-1.1594743,0.01427334,-0.0150007205,40.763855,-73.92241,0.01890901,-0.0008290955,-0.025758758,-5.7927084,3.813436,1490135948690,6.9352552032,0.0,0.988596850115
309,-1.0469383,-0.039274134,-0.12689158,40.763855,-73.92241,-0.005144905,0.013355089,0.016522223,-5.79495,3.8149118,1490135948724,6.93793899831,0.0,0.988596835964
310,-1.0624578,-0.035485167,-0.032077696,40.76386,-73.92241,-0.00374391,0.057518173,-0.01662672,-5.797192,3.816388,1490135948757,6.94062334747,0.0,0.988596805376
311,-1.0498832,-0.005067029,-0.17017297,40.76386,-73.92241,-0.0040739197,0.036384404,-0.03992273,-5.799434,3.8178637,1490135948791,6.94330742169,0.0,0.988596834959
312,-0.98596096,-0.10396997,-0.12057959,40.76386,-73.92241,0.006799495,-0.02145489,0.0050579393,-5.8016763,3.81934,1490135948824,6.94599207641,0.0,0.988596816119
313,-0.9403007,-0.053336963,-0.1753623,40.763863,-73.92241,-0.017387725,0.018008579,0.0075567625,-5.803918,3.820816,1490135948858,6.94867606502,0.0,0.988596785875
314,-0.92320496,0.014071997,-0.19693631,40.763863,-73.92241,-0.01422116,-0.07937179,0.013641909,-5.8061604,3.8222919,1490135948892,6.95136058332,0.0,0.988596823041
315,-0.9911906,-0.03905625,-0.075675,40.763863,-73.92241,-0.012907812,-0.08879375,-0.0021234376,-5.8084025,3.823768,1490135948925,6.95404496102,0.0,0.988596812435
316,-0.9460843,0.0075899414,-0.093708254,40.763866,-73.92241,-0.010791567,-0.051214803,0.0021952416,-5.8106446,3.825244,1490135948959,6.95672928373,4.0,0.988596813843
317,-1.0137671,-0.020116456,-0.044281006,40.763866,-73.92241,-0.008645864,-0.08655987,-0.014669629,-5.8128867,3.82672,1490135948992,6.95941360644,4.0,0.988596815251
318,-0.9711738,0.04424502,-0.050165333,40.763866,-73.922485,0.0005695996,-0.045864683,-0.0011010352,-5.810924,3.8334098,1490135949026,6.96145591299,4.0,0.987639126717
319,-0.89688873,0.11998852,-0.012497558,40.76387,-73.922485,-0.04899851,0.04436026,-0.058966313,-5.8077865,3.8415563,1490135949059,6.96332814361,0.0,0.986414451098
320,-1.0435835,-0.043583214,-0.12974994,40.76387,-73.922485,0.021646649,-0.09495971,-0.048383467,-5.804649,3.8497028,1490135949093,6.96521081243,0.0,0.985190435694
321,-1.0924208,-0.14742206,-0.078807764,40.76387,-73.922485,0.007179364,0.0038593959,-0.010135382,-5.801511,3.8578498,1490135949126,6.96710377147,0.0,0.983966984138
322,-0.9119465,0.05162218,-0.12689039,40.76387,-73.922485,-0.036570746,0.01101167,0.04808952,-5.798373,3.8659964,1490135949160,6.96900693155,0.0,0.982744246809
323,-1.0436568,-0.047347303,-0.09576141,40.763874,-73.922485,-0.06567306,-0.10207709,0.023194458,-5.7952356,3.8741431,1490135949193,6.97092105957,0.0,0.981522214865
324,-0.9656876,-0.0053846436,-0.080845095,40.763874,-73.922485,0.00043266724,0.07941346,0.0051769875,-5.7920976,3.88229,1490135949227,6.97284520494,0.0,0.980300783934
325,-1.0870322,-0.050761975,-0.15009671,40.763874,-73.922485,-0.038509645,-0.04177684,0.011416217,-5.78896,3.8904366,1490135949261,6.97477991196,0.0,0.97908009643
326,-0.824406,0.022199268,-0.12791461,40.763878,-73.922485,-0.053569935,0.08731191,0.0394798,-5.7858224,3.8985834,1490135949294,6.97672511793,0.0,0.977860063984
327,-1.0433084,-0.0296062,-0.13762434,40.763878,-73.922485,-0.033970993,-0.023624662,0.0007925879,-5.7826843,3.90673,1490135949328,6.97868017654,0.0,0.976640697125
328,-0.9644797,-0.07628691,-0.09685654,40.763878,-73.922485,-0.007622334,0.03176177,0.016495371,-5.7795467,3.914877,1490135949361,6.98064624391,0.0,0.975422007817
329,-0.98749226,-0.0076310793,-0.043764405,40.76388,-73.922485,-0.03268009,-0.078146055,0.0060132323,-5.776409,3.9230235,1490135949395,6.98262230948,0.0,0.974204057791
330,-0.98449373,0.039975,-0.110375,40.76388,-73.922485,-0.022624375,0.04598375,0.002786875,-5.773271,3.93117,1490135949428,6.98460847924,0.0,0.972986774554
331,-0.9048334,0.07013611,-0.13084851,40.76388,-73.922485,-0.034673773,-0.11231939,-0.028187389,-5.7701335,3.9393167,1490135949462,6.98660551847,0.0,0.971770201933
332,-1.0370332,-0.04491763,-0.119033836,40.763885,-73.922485,0.0300827,-0.01250144,-0.04411162,-5.7669954,3.9474635,1490135949495,6.98861245366,0.0,0.970554266097
333,-1.0055419,0.0154019045,-0.058617115,40.763885,-73.922485,-0.06503932,0.038513463,-0.013165635,-5.7638583,3.9556103,1490135949529,6.99063054008,0.0,0.969339111165
334,-0.9834785,-0.021254933,-0.047063734,40.763885,-73.922485,0.007805375,-0.106975615,-0.017543769,-5.7607203,3.963757,1490135949563,6.99265814479,0.0,0.968124598239
335,-0.95913374,0.04751477,-0.17218915,40.76389,-73.922485,-0.03877811,0.15509477,-0.036894567,-5.7575827,3.9719038,1490135949596,6.99469644401,0.0,0.966910811929
336,-1.0057904,-0.028239893,-0.05355991,40.76389,-73.922485,-0.010656175,-0.08074791,-0.03510009,-5.754445,3.9800506,1490135949630,6.99674496009,0.0,0.965697726479
337,-1.0172033,-0.066148855,-0.03911593,40.76389,-73.922485,-0.01810257,0.07622715,-0.02765083,-5.751307,3.988197,1490135949663,6.99880329192,0.0,0.96448537548
338,-0.98063546,-0.035915844,-0.11006575,40.763893,-73.922485,-0.032800086,-0.04130838,-0.03915634,-5.7481694,3.996344,1490135949697,7.00087257543,0.0,0.963273701398
339,-1.0017706,-0.03190807,-0.08308336,40.763893,-73.922485,-0.017968448,0.011499026,-0.015093476,-5.7450314,4.0044904,1490135949730,7.00295145997,0.0,0.962062782788
340,-1.0085373,-0.07979163,-0.08795404,40.763893,-73.922485,-0.037052166,0.0125826,-0.012219095,-5.741894,4.012637,1490135949764,7.00504121337,0.0,0.960852610341
341,-0.97367215,-0.05770436,-0.10426973,40.763897,-73.922485,-0.01763941,0.0024134484,0.009731537,-5.738756,4.020784,1490135949797,7.00714095778,0.0,0.959643065605
342,-0.9544169,-0.0037678222,-0.14172949,40.763897,-73.922485,-0.030650672,0.0047372975,0.010361724,-5.7356186,4.0289307,1490135949831,7.00925126601,0.0,0.958434331545
343,-1.0385991,-0.02309209,-0.11963164,40.763897,-73.922485,-0.017656162,-0.016680352,-0.0006037256,-5.732481,4.0370774,1490135949865,7.01137164533,0.0,0.957226310443
344,-1.0048716,-0.03768662,-0.112921655,40.7639,-73.922485,-0.016087968,-0.013622813,-0.0124648465,-5.7293425,4.045224,1490135949898,7.01350145737,0.0,0.956018959174
345,-1.04995,-0.017484374,-0.07448438,40.7639,-73.922485,-0.0338625,0.012090625,0.002421875,-5.726205,4.053371,1490135949932,7.01564253406,0.0,0.954812378537
346,-0.9697491,0.013667895,-0.090151295,40.7639,-73.922485,-0.010111514,-0.029932212,0.01120179,-5.7230673,4.0615172,1490135949965,7.01779319204,0.0,0.953606612364
347,-0.98364794,-0.0044831545,-0.09098877,40.7639,-73.922485,-0.022905797,0.01540375,-0.018351782,-5.7199297,4.069664,1490135949999,7.01995447605,0.0,0.952401525365
348,-0.94818974,-0.028007593,-0.05303225,40.763905,-73.922554,-0.015846843,-0.015268838,-0.014763216,-5.702466,4.057456,1490135950032,6.99864756029,0.0,0.95237623563
349,-0.9789243,-0.011601013,-0.048282836,40.763905,-73.922554,-0.023284005,-0.016732207,-0.019872777,-5.6846952,4.0448117,1490135950066,6.97683747878,0.0,0.952376224402
350,-1.0237186,0.09053112,-0.15983379,40.763905,-73.922554,-0.012217659,-0.007833781,-0.03202543,-5.6669245,4.0321674,1490135950099,6.95502747876,0.0,0.952376221439
351,-0.8973879,-0.15794548,0.06309463,40.76391,-73.922554,0.08495993,0.02492664,-0.09409512,-5.6491537,4.0195227,1490135950133,6.93321716536,0.0,0.952376257104
352,-0.9105068,-0.34039328,-0.0045066895,40.76391,-73.922554,-0.020493934,-0.045233946,0.05818289,-5.6313825,4.0068784,1490135950167,6.91140675794,0.0,0.952376212285
353,-1.2479858,0.13406038,-0.6158698,40.76391,-73.922554,-0.068038225,-0.012651159,0.050925698,-5.6136117,3.9942338,1490135950200,6.88959650251,0.0,0.95237623632
354,-0.65456975,-0.11856989,-0.15022907,40.763912,-73.922554,0.12465793,0.10687282,-0.07964959,-5.595841,3.9815896,1490135950234,6.86778656047,0.0,0.952376221494
355,-1.244834,-0.0926927,-0.26358747,40.763912,-73.922554,-0.023141677,0.030273447,-0.005935702,-5.5780697,3.968945,1490135950267,6.84597589764,0.0,0.952376203369
356,-1.0224717,-0.08741951,-0.12746939,40.763912,-73.922554,-0.049589813,0.027620114,0.017613582,-5.560299,3.9563007,1490135950301,6.82416589762,0.0,0.952376200282
357,-1.0925821,-0.024253612,-0.20905979,40.763916,-73.922554,-0.024171572,0.014187795,-0.017460976,-5.542528,3.9436564,1490135950334,6.80235565316,0.0,0.952376171608
358,-1.0453259,-0.020272706,-0.12733705,40.763916,-73.922554,0.008362398,0.00033703126,0.018015372,-5.5247574,3.9310117,1490135950368,6.78054550272,0.0,0.952376225016
359,-1.0268918,-0.115595385,-0.19740488,40.763916,-73.922554,0.0356281,-0.045358617,-0.018989649,-5.5069866,3.9183671,1490135950401,6.75873524729,0.0,0.952376249558
360,-1.0407,-0.116025,-0.147575,40.763916,-73.922554,-0.02603,-0.06735,0.005515,-5.4892154,3.9057226,1490135950435,6.73692472392,0.0,0.952376227742
361,-1.0352044,-0.020428468,-0.11682764,40.76392,-73.922554,0.046372928,-0.09301634,0.007856694,-5.471444,3.893078,1490135950469,6.71511397961,0.0,0.952376200651
362,-1.0187254,-0.064325295,-0.1251976,40.76392,-73.922554,0.036508124,-0.12589815,0.015640987,-5.4536743,3.8804338,1490135950502,6.69330485236,0.0,0.952376271938
363,-0.8769187,-0.25509757,-0.26983744,40.76392,-73.922554,0.03040495,-0.06236469,0.07917035,-5.435903,3.8677895,1490135950536,6.67149436346,0.0,0.952376216865
364,-0.9986789,0.031335022,-0.147889,40.763924,-73.922554,0.0076927394,-0.07644467,0.09956519,-5.4181323,3.8551452,1490135950569,6.64968436344,0.0,0.952376213742
365,-1.0962946,-0.0038594117,-0.20808518,40.763924,-73.922554,0.03445411,-0.18615358,0.08552386,-5.400361,3.8425007,1490135950603,6.62787375859,0.0,0.952376182702
366,-0.92940444,0.027619727,-0.09965091,40.763924,-73.922554,0.0416635,-0.16902386,0.10704041,-5.3825903,3.829856,1490135950636,6.60606352667,0.0,0.952376228781
367,-0.9754502,-0.0037588014,-0.3747915,40.763927,-73.922554,0.002236958,-0.1480973,0.0518994,-5.3648195,3.8172116,1490135950670,6.58425338719,0.0,0.952376229236
368,-0.8862833,-0.01310321,-0.3150368,40.763927,-73.922554,0.01997879,0.04269953,0.06614198,-5.3470488,3.8045673,1490135950703,6.56244338717,0.0,0.952376226113
369,-1.1594466,0.0132064205,-0.41538042,40.763927,-73.922554,-0.049654286,0.1676555,0.009902962,-5.329278,3.7919226,1490135950737,6.54063307377,0.0,0.952376263934
370,-0.8928054,0.030618494,-0.4097129,40.763927,-73.922554,-0.0004105542,0.113734886,0.06640638,-5.3115067,3.7792783,1490135950771,6.51882258487,0.0,0.952376207544
371,-0.9916107,0.061595947,-0.38554445,40.76393,-73.922554,0.030192439,0.002914752,0.00652171,-5.2937355,3.766634,1490135950804,6.49701217745,0.0,0.9523761597
372,-0.9518215,-0.022677515,-0.45792505,40.76393,-73.922554,-0.0161205,0.19282413,0.005204939,-5.2759647,3.7539897,1490135950838,6.47520209595,0.0,0.952376147346
373,-0.96889216,-0.025496436,-0.39639127,40.76393,-73.922554,-0.0027168214,-0.008313476,-0.0028449707,-5.2581944,3.741345,1490135950871,6.45339218994,0.0,0.952376230331
374,-0.91508687,0.019700732,-0.3477391,40.763935,-73.922554,-0.0008682642,0.074431375,-0.019361252,-5.2404237,3.7287006,1490135950905,6.43158213195,0.0,0.952376239816
375,-0.9578281,-0.03128125,-0.37392187,40.763935,-73.922554,0.0011984375,-0.021717813,-0.0205575,-5.2226524,3.716056,1490135950938,6.40977146912,0.0,0.95237622052
376,-1.0090984,-0.1395551,-0.28435153,40.763935,-73.922554,-0.00032970216,-0.031514343,-0.006435803,-5.2048817,3.7034116,1490135950972,6.38796141112,0.0,0.952376230037
377,-0.9394621,-0.11415029,-0.29505536,40.763935,-73.92262,0.0008207813,0.0041956347,0.017155902,-5.1902466,3.6929984,1490135951005,6.36999976069,0.0,0.95237622205
378,-1.0596246,-0.089911304,-0.22095747,40.76394,-73.92262,-0.031673558,-0.09704989,0.055391114,-5.1902466,3.6929984,1490135951039,6.36999976069,0.0,0.95237622205
379,-0.95997095,-0.0828224,-0.21003982,40.76394,-73.92262,-0.017536001,0.0039506787,0.077276245,-5.1902466,3.6929984,1490135951073,6.36999976069,0.0,0.95237622205
380,-1.0427041,-0.057366893,-0.15411665,40.76394,-73.92262,-0.010081812,-0.08298358,0.066552,-5.190247,3.6929984,1490135951106,6.37000008661,0.0,0.952376258455
381,-0.95061994,-0.009207568,-0.14820687,40.76394,-73.92262,-0.020559711,-0.022486111,0.091137126,-5.1902466,3.6929984,1490135951140,6.36999976069,0.0,0.95237622205
382,-1.0573816,0.018307496,-0.118039615,40.76394,-73.92262,-0.027144905,-0.014531986,0.026105523,-5.1902466,3.6929984,1490135951173,6.36999976069,0.0,0.95237622205
383,-0.9801445,0.058932725,-0.11486545,40.763943,-73.92262,0.0056522572,-0.062458694,0.05373711,-5.1902466,3.6929986,1490135951207,6.36999987664,0.0,0.952376196468
384,-0.9735601,0.029839978,-0.11279993,40.763943,-73.92262,-0.010424982,0.020305857,-0.008368023,-5.1902466,3.6929984,1490135951240,6.36999976069,0.0,0.95237622205
385,-0.98956347,0.002810327,-0.12579079,40.763943,-73.92262,0.01986698,-0.076943465,0.024969751,-5.1902466,3.6929984,1490135951274,6.36999976069,0.0,0.95237622205
386,-0.9591528,0.029977111,-0.13525951,40.763943,-73.92262,-0.0039805262,0.027548052,0.0043524024,-5.1902466,3.6929984,1490135951307,6.36999976069,0.0,0.95237622205
387,-0.9982299,0.018475367,-0.09738721,40.763943,-73.92262,-0.00346156,-0.051488854,0.010573828,-5.1902466,3.6929984,1490135951341,6.36999976069,0.0,0.95237622205
388,-0.9323116,0.007556836,-0.16952491,40.763947,-73.92262,-0.0055253175,0.015016684,0.014776592,-5.1902466,3.6929984,1490135951375,6.36999976069,0.0,0.95237622205
389,-1.0043987,0.0015718994,-0.12674402,40.763947,-73.92262,-0.020257872,-0.0045945924,-0.0064788917,-5.1902466,3.6929982,1490135951408,6.36999964474,0.0,0.952376247632
390,-0.96241874,0.00163125,-0.12749375,40.763947,-73.92262,-0.01154125,-0.0387475,0.02063125,-5.1902466,3.6929984,1490135951442,6.36999976069,0.0,0.95237622205
391,-0.97098947,-9.6240234e-05,-0.13325664,40.763947,-73.92262,-0.053403456,0.023902003,-0.0047196485,-5.1902466,3.6929984,1490135951475,6.36999976069,0.0,0.95237622205
392,-0.9903298,-0.002481787,-0.15027837,40.76395,-73.92262,-0.031387184,-0.05614048,0.029869776,-5.1902466,3.6929984,1490135951509,6.36999976069,0.0,0.95237622205
393,-0.9362048,-0.028012866,-0.1465155,40.76395,-73.92262,-0.050943356,0.0380593,0.019411527,-5.1902466,3.6929984,1490135951542,6.36999976069,0.0,0.95237622205
394,-1.0349507,-0.026521826,-0.101624295,40.76395,-73.92262,-0.033123206,-0.11019108,0.021875165,-5.1902466,3.6929984,1490135951576,6.36999976069,0.0,0.95237622205
395,-0.8447421,-0.094880685,-0.071662545,40.76395,-73.92262,-0.029079229,0.061017215,0.05756614,-5.1902466,3.6929984,1490135951609,6.36999976069,0.0,0.95237622205
396,-0.9434847,-0.18668066,-0.11185199,40.76395,-73.92262,-0.118632555,0.0079587735,0.11707473,-5.1902466,3.6929984,1490135951643,6.36999976069,0.0,0.95237622205
397,-1.0191212,0.17920873,-0.22458173,40.763954,-73.92262,0.03190676,0.17752908,0.094810344,-5.1902466,3.6929984,1490135951677,6.36999976069,0.0,0.95237622205
398,-0.85176593,0.16411218,-0.090773694,40.763954,-73.92262,-0.0065966053,0.12156512,-0.031629626,-5.1902466,3.6929984,1490135951710,6.36999976069,0.0,0.95237622205
399,-1.1850117,0.05324502,-0.13326843,40.763954,-73.92262,-0.043178163,-0.0426036,0.01146828,-5.1902466,3.6929984,1490135951744,6.36999976069,0.0,0.95237622205
400,-0.9318342,0.15816629,-0.1689999,40.763954,-73.92262,0.0056263255,0.06644661,0.018179875,-5.1902466,3.6929984,1490135951777,6.36999976069,0.0,0.95237622205
401,-1.0359132,0.116140746,-0.14395581,40.763954,-73.92262,-0.07154187,-0.037167247,-0.009897675,-5.1902466,3.6929984,1490135951811,6.36999976069,0.0,0.95237622205
402,-1.0200996,0.15121663,-0.15378635,40.763958,-73.92262,-0.07453019,0.05728008,-0.013459482,-5.1902466,3.6929984,1490135951844,6.36999976069,0.0,0.95237622205
403,-1.0680051,0.076260746,-0.11954175,40.763958,-73.92262,-0.066802666,-0.056526165,-0.035253365,-5.1902466,3.6929984,1490135951878,6.36999976069,0.0,0.95237622205
404,-0.9388801,0.06843923,-0.16194165,40.763958,-73.92262,-0.07208589,0.015764017,-0.045805454,-5.1902466,3.6929984,1490135951911,6.36999976069,0.0,0.95237622205
405,-1.0114156,0.071325,-0.1235625,40.763958,-73.92262,-0.095014684,0.0017284375,-0.05107594,-5.190246,3.6929984,1490135951945,6.36999927181,0.0,0.952376167443
406,-0.99753463,0.02421328,-0.07503879,40.763958,-73.92262,-0.07405593,-0.0034753052,-0.032982323,-5.1902466,3.6929984,1490135951978,6.36999976069,0.0,0.95237622205
407,-0.9826715,0.024300732,-0.11371861,40.76396,-73.92266,-0.087690145,-0.070663676,-0.017270625,-5.1902466,3.6929984,1490135952012,6.36999976069,0.0,0.95237622205
408,-0.98412013,0.026484985,-0.14204004,40.76396,-73.92266,-0.08936412,-0.042522196,-0.009751438,-5.1902466,3.6929984,1490135952046,6.36999976069,0.0,0.95237622205
409,-0.9216054,-0.046327565,-0.11969297,40.76396,-73.92266,-0.08235784,-0.062462974,-0.0028811633,-5.1902466,3.6929984,1490135952079,6.36999976069,0.0,0.95237622205
410,-0.90848744,-0.117649905,-0.06616925,40.76396,-73.92266,-0.12277945,-0.09313324,0.035008017,-5.1902466,3.6929984,1490135952113,6.36999976069,0.0,0.95237622205
411,-1.0590498,0.19682989,-0.04280211,40.76396,-73.92266,-0.13357566,-0.04456207,0.0042507676,-5.1902466,3.6929984,1490135952146,6.36999976069,0.0,0.95237622205
412,-1.0169992,-0.010912659,0.040287536,40.76396,-73.92266,-0.040767215,-0.11699837,-0.024830896,-5.1902466,3.6929984,1490135952180,6.36999976069,0.0,0.95237622205
413,-1.023267,0.058007006,0.08720591,40.76396,-73.92266,-0.072209336,0.00091395265,-0.029252844,-5.190247,3.6929984,1490135952213,6.37000008661,0.0,0.952376258455
414,-0.9825515,0.07029118,-0.007868592,40.76396,-73.92266,-0.07397981,0.014514653,-0.0400989,-5.1902466,3.6929986,1490135952247,6.36999987664,0.0,0.952376196468
415,-1.0043734,0.109058104,0.028,40.76396,-73.92266,-0.078892544,-0.054355185,-0.026554605,-5.1902466,3.6929984,1490135952280,6.36999976069,0.0,0.95237622205
416,-0.92982674,-0.014547168,0.089160375,40.76396,-73.92266,-0.07880652,0.07596209,-0.039673723,-5.1902466,3.6929984,1490135952314,6.36999976069,0.0,0.95237622205
417,-0.9800655,-0.038847044,0.049847044,40.76396,-73.92266,-0.09061249,0.014197842,-0.014343242,-5.1902466,3.6929984,1490135952348,6.36999976069,0.0,0.95237622205
418,-0.95882195,0.03887168,0.013102881,40.76396,-73.92266,-0.111730956,0.038568042,0.0033882228,-5.1902466,3.6929984,1490135952381,6.36999976069,0.0,0.95237622205
419,-1.0275927,0.0052867187,0.08050698,40.76396,-73.92266,-0.0849814,0.026455108,-0.02566294,-5.1902466,3.6929984,1490135952415,6.36999976069,0.0,0.95237622205
420,-1.0166,-0.0040125,0.01785,40.76396,-73.92266,-0.1007,0.0118,-0.0127625,-5.1902466,3.6929984,1490135952448,6.36999976069,5.0,0.95237622205
421,-1.0017501,0.02163042,0.03004336,40.76396,-73.92266,-0.090202555,-0.007993984,-0.007473042,-5.1902466,3.6929984,1490135952482,6.36999976069,5.0,0.95237622205
422,-1.0257168,0.036900878,0.05192212,40.76396,-73.92266,-0.11216306,0.040782765,-0.011002603,-5.1902466,3.6929984,1490135952515,6.36999976069,5.0,0.95237622205
423,-1.0482105,0.052293703,0.06854338,40.76396,-73.92266,-0.09061748,-0.019549416,-0.020324504,-5.1902466,3.6929984,1490135952549,6.36999976069,5.0,0.95237622205
424,-1.0036182,0.052113038,0.03213495,40.76396,-73.92266,-0.058094718,-0.018352376,-0.027273241,-5.1902466,3.6929984,1490135952582,6.36999976069,5.0,0.95237622205
425,-1.026026,0.055541895,0.0577917,40.76396,-73.92266,-0.07435368,-0.017433204,-0.05529355,-5.1902466,3.6929984,1490135952616,6.36999976069,5.0,0.95237622205
426,-0.9784414,0.037594873,0.13233846,40.76396,-73.92266,-0.06823362,-0.0550651,-0.050758887,-5.1902466,3.6929984,1490135952650,6.36999976069,5.0,0.95237622205
427,-1.0122385,0.03042251,0.09835102,40.76396,-73.92266,-0.05356075,0.01913087,-0.089238815,-5.1902466,3.6929984,1490135952683,6.36999976069,5.0,0.95237622205
428,-0.9771658,-0.028355004,0.08129584,40.76396,-73.92266,-0.03356942,-0.07279187,-0.07512491,-5.1902466,3.6929984,1490135952717,6.36999976069,5.0,0.95237622205
429,-0.984107,-0.09147644,0.07715747,40.76396,-73.92266,-0.03905244,-0.023018008,-0.07218357,-5.1902466,3.6929984,1490135952750,6.36999976069,5.0,0.95237622205
430,-0.9587543,-0.10697696,0.10150864,40.76396,-73.92266,-0.070623524,-0.019944768,-0.040308837,-5.1902466,3.6929984,1490135952784,6.36999976069,5.0,0.95237622205
431,-1.032939,-0.050045814,0.13753918,40.76396,-73.92266,-0.032782245,-0.08899297,-0.019437203,-5.1902466,3.6929984,1490135952817,6.36999976069,5.0,0.95237622205
432,-0.99608,-0.08230998,0.1217397,40.76396,-73.92266,-0.066225834,-0.011304135,-0.017112065,-5.1902466,3.6929984,1490135952851,6.36999976069,5.0,0.95237622205
433,-1.0075268,-0.072614744,0.13641836,40.76396,-73.92266,-0.049636718,-0.055369508,-0.00885023,-5.1902466,3.6929984,1490135952884,6.36999976069,5.0,0.95237622205
434,-1.0160012,-0.06287323,0.18760186,40.76396,-73.92266,-0.026691297,0.010183936,-0.030745849,-5.1902466,3.6929982,1490135952918,6.36999964474,5.0,0.952376247632
435,-1.0001125,-0.051315624,0.15150313,40.76396,-73.92266,-0.048358124,-0.044159375,0.000875625,-5.1902466,3.6929984,1490135952952,6.36999976069,5.0,0.95237622205
436,-1.0445604,-0.052037317,0.1314396,40.76396,-73.92266,-0.023293832,-0.009609585,-0.011418028,-5.190246,3.6929984,1490135952985,6.36999927181,5.0,0.952376167443
437,-1.0180941,-0.057150993,0.15811393,40.76396,-73.92267,-0.009977968,-0.016376117,-0.013843789,-5.202694,3.68937,1490135953019,6.37804639796,5.0,0.953971188596
438,-1.0389464,-0.057213746,0.13776354,40.763966,-73.92267,-0.039447844,0.045699444,-0.0028181274,-5.2244797,3.683019,1490135953052,6.39216841847,5.0,0.956753117093
439,-1.0463071,-0.014081421,0.12947668,40.76397,-73.92267,0.0069150818,-0.06537788,-0.0076155774,-5.2462654,3.676668,1490135953086,6.40633969045,5.0,0.959522759303
440,-0.9576001,-0.07724988,0.17918396,40.76397,-73.92267,0.034299333,-0.017960234,-0.03139171,-5.2680516,3.6703167,1490135953119,6.42056012654,5.0,0.962280237086
441,-1.0213953,-0.08005757,0.13467287,40.763973,-73.92267,0.006877047,0.011908047,-0.016762141,-5.2898374,3.663966,1490135953153,6.43482917936,5.0,0.965025394372
442,-0.97757876,-0.038982496,0.116701305,40.763977,-73.92267,0.007664125,0.009604327,-0.013366781,-5.3116236,3.6576147,1490135953186,6.4491464987,5.0,0.96775849529
443,-1.0139025,-0.03847562,0.15509751,40.763977,-73.92267,-0.00013493042,-0.009886541,-0.018393537,-5.3334093,3.6512637,1490135953220,6.4635115354,5.0,0.97047938572
444,-0.998885,-0.065837584,0.076339744,40.76398,-73.92267,0.044494994,-0.040710174,-0.04114202,-5.355195,3.6449125,1490135953254,6.4779240981,5.0,0.973188214284
445,-0.9812221,-0.06477191,0.12093359,40.763985,-73.92267,0.0030224707,0.046064954,-0.053952936,-5.3769813,3.6385612,1490135953287,6.49238442382,5.0,0.975885060867
446,-1.0211285,-0.097376235,0.12685141,40.763985,-73.92267,0.014322624,-0.041718844,-0.035190407,-5.3987675,3.6322103,1490135953321,6.50689189879,5.0,0.978569841901
447,-0.985366,-0.1171405,0.14956531,40.76399,-73.92267,0.05133768,-0.009857942,-0.033431295,-5.420553,3.6258593,1490135953354,6.52144542944,5.0,0.981242611732
448,-0.9797635,-0.09598672,0.14144023,40.763992,-73.92267,0.022813305,-0.022812055,-0.03866268,-5.442339,3.6195083,1490135953388,6.53604575601,5.0,0.98390350225
449,-0.9777393,-0.10299016,0.10257976,40.763992,-73.92267,0.03201936,0.041935775,-0.040572993,-5.4641247,3.6131573,1490135953421,6.55069190328,5.0,0.986552487463
450,-1.0357,-0.11765,0.091275,40.763996,-73.92267,0.0217375,0.061096877,-0.05375625,-5.485911,3.6068063,1490135953455,6.56538431363,5.0,0.989189685606
451,-1.0003523,-0.1660885,0.055968165,40.764,-73.92267,0.02173665,0.028886672,-0.012485979,-5.507697,3.6004553,1490135953488,6.58012192981,5.0,0.991815063634
452,-1.0655499,-0.13961329,0.069,40.764,-73.92267,0.04587915,-0.015684575,-0.02132599,-5.529483,3.5941043,1490135953522,6.59490469731,5.0,0.99442868981
453,-0.99915487,-0.14132632,0.039491724,40.764004,-73.92267,0.040708646,0.010561848,-0.0059383498,-5.551269,3.5877533,1490135953556,6.60973231319,0.0,0.997030607396
454,-1.0331085,-0.07451691,0.0503338,40.764008,-73.92267,0.047542606,-0.005869379,-0.03839648,-5.5730553,3.5814023,1490135953589,6.62460472868,0.0,0.999620884382
455,-1.0122397,-0.09853644,0.07347935,40.764008,-73.92267,0.06485688,-0.035982683,-0.039130162,-5.594841,3.5750513,1490135953623,6.6395208873,0.0,1.00219949107
456,-1.0334449,-0.14041491,0.021330053,40.76401,-73.92267,0.07450504,-0.0639561,-0.035014,-5.6166267,3.5687,1490135953656,6.65448083453,0.0,1.00476655875
457,-0.94721377,-0.091118775,-0.002786206,40.76401,-73.92267,0.036861315,0.041448653,-0.031480107,-5.638413,3.5623493,1490135953690,6.66948526453,0.0,1.00732206551
458,-1.0225742,-0.072106265,-0.0037445922,40.764015,-73.92267,0.06909142,-0.032089043,-0.05471162,-5.6601987,3.5559978,1490135953723,6.68453212103,0.0,1.00986613682
459,-1.039852,-0.25849244,0.047543824,40.76402,-73.92267,0.1201,-0.10803984,-0.04558442,-5.681985,3.549647,1490135953757,6.69962292706,0.0,1.012398723
460,-0.992062,-0.17185383,0.0547332,40.76402,-73.92267,0.04432292,-0.03228991,-0.03132287,-5.7037706,3.5432959,1490135953790,6.71475575821,0.0,1.01491989244
461,-1.1177676,-0.21929663,0.006162695,40.764023,-73.92267,0.081910245,-0.055040058,-0.01344893,-5.7255564,3.5369446,1490135953824,6.72993114326,0.0,1.01742974872
462,-1.1002371,-0.34985346,-0.009153735,40.764027,-73.92267,0.106601864,-0.13068983,0.039434865,-5.747342,3.5305939,1490135953858,6.74514887543,0.0,1.01992820448
463,-1.067754,-0.024956446,0.020802978,40.764027,-73.92267,0.07572525,-0.0878581,0.059381,-5.769129,3.5242429,1490135953891,6.76040956132,0.0,1.02241554248
464,-0.95962644,-0.10275972,-0.0208667,40.76403,-73.92267,0.100338064,-0.027233435,0.007139783,-5.7909145,3.5178916,1490135953925,6.77571044656,0.0,1.02489158379
465,-1.0862437,-0.20625,0.087178126,40.764034,-73.92267,0.07137094,-0.14504218,0.001020625,-5.8127007,3.5115407,1490135953958,6.79105349085,0.0,1.02735645537
466,-1.0073203,-0.11089954,0.0018995361,40.764034,-73.92267,0.10207928,0.04050179,0.0052656713,-5.8344865,3.5051897,1490135953992,6.80643721426,0.0,1.02981018178
467,-1.013544,-0.13066523,-0.034198973,40.764038,-73.92283,0.08840605,-0.09248171,0.023477554,-5.8806667,3.528407,1490135954025,6.85798051865,0.0,1.03037595377
468,-1.0089782,-0.14363782,-0.005127173,40.764038,-73.92283,0.08419613,0.05511284,0.027668161,-5.9341836,3.5605173,1490135954059,6.92039149486,0.0,1.03037594182
469,-1.0835646,-0.1413598,-0.031086681,40.764038,-73.92283,0.0767316,-0.04718674,0.051817402,-5.9877,3.592627,1490135954092,6.98280173363,0.0,1.03037596692
470,-0.9831625,-0.19738942,-0.024166992,40.76404,-73.92283,0.10185015,-0.07131782,0.050793223,-6.041217,3.6247373,1490135954126,7.04521279559,0.0,1.03037596236
471,-1.0084971,-0.23884603,0.031180078,40.76404,-73.92283,0.06785065,0.050671425,0.04996285,-6.0947337,3.6568475,1490135954160,7.10762354885,0.0,1.03037594824
472,-0.9430285,-0.058068372,-0.058124937,40.76404,-73.92283,0.1277652,-0.12624678,0.052423026,-6.14825,3.6889575,1490135954193,7.17003385622,0.0,1.03037592957
473,-0.9606647,-0.089459226,0.0058308104,40.764046,-73.92283,0.06516794,0.025087662,0.029174516,-6.201767,3.7210674,1490135954227,7.23244471238,0.0,1.03037597288
474,-1.0073172,-0.1601238,0.00032108155,40.764046,-73.92283,0.10140703,-0.08100202,0.030459005,-6.255284,3.7531776,1490135954260,7.29485572289,0.0,1.03037598018
475,-0.8782644,-0.064594276,0.03014624,40.764046,-73.92283,0.050818656,0.08733723,0.03566182,-6.3088007,3.7852879,1490135954294,7.3572665276,0.0,1.03037595473
476,-0.9642073,-0.09529048,-0.02149779,40.76405,-73.92283,0.087057315,0.043172333,0.01977771,-6.362317,3.817398,1490135954327,7.41967688642,0.0,1.03037592508
477,-0.99344593,-0.09449412,-0.021903662,40.76405,-73.92283,0.054265615,0.06550051,0.019283453,-6.4158335,3.8495078,1490135954361,7.48208726239,0.0,1.03037594406
478,-0.9623824,-0.20219892,-0.046734963,40.76405,-73.92283,0.0904634,0.015863305,0.031692334,-6.4693503,3.881618,1490135954394,7.5444981014,0.0,1.03037593772
479,-0.9971687,-0.17782527,-0.009493897,40.764053,-73.92283,0.0648186,0.03638275,0.037598442,-6.522867,3.9137282,1490135954428,7.60690885466,0.0,1.03037592472
480,-0.986,-0.13975,-0.057,40.764053,-73.92283,0.0668,0.07115,0.0556,-6.5763845,3.9458385,1490135954462,7.66932034537,0.0,1.03037595442
481,-1.0626024,-0.14233732,-0.0537229,40.764053,-73.92283,0.054249953,0.0786924,0.046612367,-6.629901,3.9779487,1490135954495,7.73173092714,0.0,1.03037592819
482,-1.0257832,-0.079912744,-0.074286185,40.764057,-73.92283,0.05472728,0.0013337402,0.07033201,-6.6834173,4.010059,1490135954529,7.79414138885,0.0,1.03037587817
483,-1.0138973,-0.07696382,-0.04988557,40.764057,-73.92283,0.05522916,0.0601886,0.04670549,-6.7369347,4.0421686,1490135954562,7.85655243366,0.0,1.03037597739
484,-1.0118595,-0.025507031,-0.06313821,40.76406,-73.92283,0.0530973,-0.069935806,0.050091725,-6.790451,4.074279,1490135954596,7.91896294683,0.0,1.03037591694
485,-1.0143967,-0.09877075,-0.05691561,40.76406,-73.92283,0.080100946,-0.005451697,0.03951146,-6.843968,4.106389,1490135954629,7.98137385444,0.0,1.03037594554
486,-0.9811625,-0.09747002,-0.007547388,40.76406,-73.92283,0.04992764,-0.07316605,0.05730682,-6.897485,4.1384993,1490135954663,8.0437849164,0.0,1.03037594172
487,-1.0287522,-0.15461932,-0.014151062,40.764065,-73.92283,0.055829696,-0.057509866,0.08495709,-6.9510016,4.170609,1490135954696,8.10619532667,0.0,1.03037597603
488,-0.94443333,-0.026461633,-0.025639942,40.764065,-73.92283,0.044132303,-0.05556218,0.03877082,-7.0045185,4.202719,1490135954730,8.16860614853,0.0,1.03037599723
489,-0.97503567,0.019878833,-0.01581825,40.76407,-73.92283,0.057696156,-0.04617438,-0.009284328,-7.058035,4.2348294,1490135954763,8.23101683319,0.0,1.03037595143
490,-0.98116475,-0.08540631,0.0073499023,40.76407,-73.92283,0.04616532,0.06656747,-0.057675164,-7.1115513,4.2669396,1490135954797,8.29342724346,0.0,1.03037591459
491,-1.0251144,-0.05982655,0.0009151367,40.76407,-73.92283,0.036125798,0.011084649,-0.037987635,-7.165068,4.29905,1490135954831,8.35583809962,0.0,1.0303758824
492,-1.0075349,-0.094889745,0.012640234,40.764072,-73.92283,0.06248329,0.05817134,-0.02785033,-7.2185845,4.3311596,1490135954864,8.41824837269,0.0,1.03037591996
493,-1.091,-0.09875918,-0.037444923,40.764072,-73.92283,0.037735954,0.011226119,0.014897158,-7.2721014,4.36327,1490135954898,8.48065940035,0.0,1.03037590034
494,-1.0179464,-0.10533081,-0.0895166,40.764076,-73.92283,0.07869443,-0.044602394,0.032381993,-7.3256183,4.39538,1490135954931,8.54307022221,0.0,1.03037592116
495,-0.91622186,-0.0997375,-0.11418125,40.764076,-73.92283,0.03931406,0.008089063,0.010864687,-7.379135,4.4274898,1490135954965,8.60548076968,0.0,1.03037594965
496,-0.96523994,-0.07637334,-0.055106737,40.764076,-73.92283,0.033969995,0.023765745,-0.013360344,-7.432652,4.4596,1490135954998,8.66789178019,0.0,1.03037595596
497,-0.9714311,-0.059181787,-0.086518504,40.76408,-73.92292,0.034930494,0.05076013,-0.025175732,-7.471991,4.4832034,1490135955032,8.71376854351,0.0,1.03037596055
498,-1.0345622,-0.09296409,-0.036462646,40.76408,-73.92292,0.05725891,-0.014023907,-0.013609712,-7.5108337,4.5065093,1490135955065,8.7590666706,0.0,1.03037593761
499,-0.9984026,-0.12855092,-0.089654125,40.764084,-73.92292,0.026358288,-0.018099023,0.0103940675,-7.5496764,4.5298147,1490135955099,8.80436454045,0.0,1.03037596361
500,-0.93860453,-0.06872091,-0.08748722,40.764084,-73.92292,0.06003954,-0.018227296,0.017141646,-7.588519,4.5531206,1490135955133,8.84966258179,0.0,1.03037593509
501,-0.9696737,-0.09258008,-0.09266315,40.764084,-73.92292,0.04403785,-0.032,-0.0011231079,-7.6273613,4.576426,1490135955166,8.89496010864,0.0,1.0303759377
502,-0.9597979,-0.036787476,-0.050287098,40.764088,-73.92292,0.030172458,0.010018044,-0.0045335386,-7.6662045,4.599732,1490135955200,8.94025871592,0.0,1.03037593453
503,-1.0343325,-0.038555812,-0.05944419,40.764088,-73.92292,0.054003417,-0.00996274,-0.022827618,-7.705047,4.6230373,1490135955233,8.98555636282,0.0,1.03037595811
504,-0.9994899,-0.08915003,-0.06715003,40.76409,-73.92292,0.06738556,-0.039743006,-0.0037955018,-7.74389,4.646343,1490135955267,9.03085464426,0.0,1.03037597196
505,-0.98232305,-0.10792712,-0.12859353,40.76409,-73.92292,0.045642775,0.009799049,0.0035826343,-7.782733,4.669649,1490135955300,9.07615308005,0.0,1.03037595733
506,-0.9894986,-0.108166195,-0.04060846,40.76409,-73.92292,0.051209785,0.023039222,0.0015814062,-7.821576,4.692955,1490135955334,9.12145151584,0.0,1.03037594285
507,-0.99968195,-0.095,-0.08912556,40.764095,-73.92292,0.044310223,-0.014986016,0.0317859,-7.8604183,4.7162604,1490135955367,9.16674904269,0.0,1.03037594534
508,-0.97848415,-0.0879668,-0.09735425,40.764095,-73.92292,0.023403691,0.04930269,0.018024262,-7.8992615,4.739567,1490135955401,9.21204795867,0.0,1.03037588638
509,-0.9689292,-0.04525398,-0.09697434,40.7641,-73.92292,0.038401112,-0.030003322,0.0033761035,-7.938104,4.762872,1490135955435,9.25734545122,0.0,1.03037593729
510,-0.9602563,-0.04976875,-0.08949375,40.7641,-73.92292,0.0262975,0.0350225,-0.01325375,-7.976948,4.7861776,1490135955468,9.3026445387,0.0,1.03037601536
511,-1.0376693,-0.0635896,-0.12151792,40.7641,-73.92292,0.040624097,-0.012534302,-0.0021851684,-8.01579,4.8094835,1490135955502,9.34794206555,0.0,1.03037595508
512,-0.97011644,-0.08598672,-0.13705005,40.764103,-73.92292,0.048728067,-0.06384271,-2.0019532e-05,-8.054633,4.8327894,1490135955535,9.39324044989,0.0,1.03037595016
513,-0.96796083,-0.04915686,-0.13061439,40.764103,-73.92292,0.03027736,0.031620998,-0.023236938,-8.093475,4.8560953,1490135955569,9.43853797674,0.0,1.03037589077
514,-1.0565991,-0.0981139,-0.08663856,40.764107,-73.92292,0.017925918,-0.0020178382,-0.0026797485,-8.1323185,4.8794007,1490135955602,9.48383653257,0.0,1.03037595853
515,-0.9722387,-0.042148072,-0.08478552,40.764107,-73.92292,0.04367413,-0.06682206,0.0069636106,-8.171162,4.9027066,1490135955636,9.52913534566,0.0,1.03037598065
516,-0.97817254,-0.09459745,-0.11130245,40.76411,-73.92292,0.03165407,0.0053980625,-0.014024485,-8.210004,4.926012,1490135955669,9.57443261526,0.0,1.03037596674
517,-1.0002193,-0.07282106,-0.058772303,40.76411,-73.92292,0.027883453,-0.023584504,0.0027899279,-8.248847,4.949318,1490135955703,9.61973105105,0.0,1.03037595296
518,-0.9528862,-0.044947486,-0.08108169,40.76411,-73.92292,0.034475435,-0.038499035,0.007449115,-8.28769,4.972624,1490135955737,9.66502948684,0.0,1.03037593931
519,-0.93918324,-0.065795764,-0.079052396,40.764114,-73.92292,0.025053877,0.02152989,-0.014136533,-8.326532,4.9959297,1490135955770,9.71032691079,0.0,1.0303758993
520,-1.0097415,-0.11132489,-0.03440851,40.764114,-73.92292,0.034550976,-0.015084422,0.0021042174,-8.3653755,5.019235,1490135955804,9.75562541518,0.0,1.03037597392
521,-0.9413605,-0.026468616,-0.08239652,40.76412,-73.92292,0.03291371,-0.012412714,0.017538361,-8.404219,5.042541,1490135955837,9.80092427971,0.0,1.03037598661
522,-1.0095271,-0.073973514,-0.10227869,40.76412,-73.92292,0.005017368,0.055636093,-0.00954028,-8.443061,5.0658464,1490135955871,9.84622154931,0.0,1.03037597306
523,-1.0062529,-0.06425635,-0.07361201,40.764122,-73.92292,0.022974195,-0.002726753,0.0124738915,-8.481904,5.0891523,1490135955904,9.89151993365,0.0,1.0303759683
524,-0.9957867,-0.033074953,-0.13303748,40.764122,-73.92292,0.040704403,0.006194609,0.0017228466,-8.520747,5.112458,1490135955938,9.93681821509,0.0,1.03037598084
525,-0.9786969,-0.055025,-0.12085938,40.764126,-73.92292,0.020309376,0.054970313,-0.013867187,-8.559589,5.1357636,1490135955971,9.98211558759,0.0,1.03037595031
526,-0.9934804,-0.058614623,-0.15731296,40.764126,-73.92303,0.029018467,0.00305083,-0.013182988,-8.5877905,5.1526847,1490135956005,10.0150040085,0.0,1.03037593607
527,-0.9661587,-0.036511473,-0.1318413,40.764126,-73.92303,0.024144785,-0.0039139795,-0.007851392,-8.561607,5.1369743,1490135956039,9.98446890833,0.0,1.03037595911
528,-1.0022603,-0.092480324,-0.14878,40.76413,-73.92303,0.025497954,-0.0053648804,-0.024904042,-8.535423,5.121264,1490135956072,9.95393343089,0.0,1.03037594783
529,-0.98965716,-0.10504986,-0.16467676,40.76413,-73.92303,0.0034596778,-0.0006878772,0.00019557984,-8.509242,5.1055546,1490135956106,9.92340098898,0.0,1.03037601426
530,-1.0356458,-0.07572918,-0.11619779,40.76413,-73.92303,0.02641493,-0.061657272,0.0044738953,-8.483058,5.0898447,1490135956139,9.89286571735,0.0,1.03037596841
531,-0.9318647,-0.09432806,-0.12267194,40.764133,-73.92303,0.018004062,-0.05141072,0.01744525,-8.456875,5.074135,1490135956173,9.86233140611,0.0,1.03037595706
532,-1.0418491,-0.050564174,-0.09663751,40.764133,-73.92303,0.0046442323,-0.04540314,-0.0068978393,-8.430693,5.0584254,1490135956206,9.8317980038,0.0,1.03037598925
533,-0.9777864,-0.055168543,-0.12469668,40.764133,-73.92303,0.04312915,-0.09272125,0.015626494,-8.404509,5.0427155,1490135956240,9.80126273217,0.0,1.0303759429
534,-1.0043901,-0.06023126,-0.07876233,40.764137,-73.92303,0.0050040637,0.009975187,-0.014288441,-8.378326,5.027005,1490135956273,9.77072800933,0.0,1.03037600157
535,-1.0175687,-0.060146984,-0.108,40.764137,-73.92303,0.009531891,-0.0362,0.0055236253,-8.352143,5.011296,1490135956307,9.74019405823,0.0,1.03037592855
536,-1.0282651,-0.029185861,-0.08276207,40.76414,-73.92303,0.016202116,-0.008915427,-0.0040608193,-8.32596,4.995586,1490135956341,9.70965959264,0.0,1.03037594339
537,-0.9997021,-0.051,-0.094559446,40.76414,-73.92303,0.00564947,-0.0014552735,-0.005072635,-8.299778,4.9798765,1490135956374,9.67912624179,0.0,1.03037596718
538,-1.0387478,-0.06949292,-0.17004248,40.76414,-73.92303,0.027019462,-0.0072867465,-0.012228022,-8.273595,4.9641666,1490135956408,9.64859182765,0.0,1.03037597335
539,-0.9624236,-0.05678252,-0.12619615,40.764145,-73.92303,0.014335647,-0.03837438,0.016107712,-8.247412,4.948457,1490135956441,9.61805756786,0.0,1.03037595281
540,-0.9747125,-0.0815,-0.2101875,40.764145,-73.92303,-0.003355,0.0448925,-0.01156875,-8.221229,4.932747,1490135956475,9.58752310226,0.0,1.03037596792
541,-0.98813814,-0.07751748,-0.20283917,40.764145,-73.92303,0.017258044,0.009998877,0.0071243406,-8.195045,4.917037,1490135956508,9.55698777918,0.0,1.03037592928
542,-0.99798787,-0.09303872,-0.2519613,40.76415,-73.92303,0.012519746,0.009922802,0.03889318,-8.168863,4.901327,1490135956542,9.52645417108,0.0,1.03037599842
543,-0.97283494,-0.052861694,-0.21511413,40.76415,-73.92303,-0.0049250512,0.0052929833,0.03551321,-8.14268,4.8856173,1490135956575,9.49591985984,0.0,1.03037598672
544,-0.9707333,-0.03282676,-0.22215995,40.76415,-73.92303,0.028546656,-0.034953758,0.028015677,-8.116497,4.8699074,1490135956609,9.4653854457,0.0,1.03037599307
545,-0.9203133,-0.001296692,-0.28146473,40.764153,-73.92303,0.0026007006,0.03918406,0.013579599,-8.090314,4.8541975,1490135956643,9.43485103155,0.0,1.03037599946
546,-1.0161524,-0.040572487,-0.18727268,40.764153,-73.92303,-0.004527515,-0.036858093,0.008368462,-8.064131,4.838488,1490135956676,9.40431682321,0.0,1.03037596942
547,-0.9707548,-0.050690223,-0.26212916,40.764153,-73.92303,0.045320112,-0.036397345,0.0131901475,-8.037948,4.822778,1490135956710,9.37378235762,0.0,1.03037598493
548,-0.9405142,-0.04068335,-0.2750433,40.764156,-73.92303,-0.0049854857,-0.0016219239,0.0024206543,-8.011765,4.8070683,1490135956743,9.34324804637,0.0,1.030375973
549,-1.0199033,-0.06654253,-0.24057184,40.764156,-73.92303,0.016921379,0.016204212,0.008807856,-7.985582,4.7913585,1490135956777,9.31271368368,0.0,1.0303759702
550,-0.98944163,-0.051893614,-0.24596454,40.764156,-73.92303,0.022492731,-0.0389666,0.01947996,-7.9593987,4.7756486,1490135956810,9.28217901229,0.0,1.03037595999
551,-0.9671627,-0.061903786,-0.31491405,40.76416,-73.92303,-0.0037499743,0.05002727,0.016400486,-7.9332156,4.7599387,1490135956844,9.2516445124,0.0,1.03037596084
552,-1.019985,-0.024210205,-0.29291493,40.76416,-73.92303,0.01383205,-0.09263922,0.024705054,-7.907033,4.744229,1490135956877,9.22111054416,0.0,1.03037597099
553,-0.95805436,-0.00734541,-0.22232851,40.76416,-73.92303,0.014379224,-0.0013460058,-0.007481152,-7.8808503,4.728519,1490135956911,9.19057633581,0.0,1.03037600361
554,-0.9806745,-0.05711079,-0.29231578,40.764164,-73.92303,0.009972405,0.028449794,-0.0074535254,-7.8546667,4.7128096,1490135956945,9.16004166442,0.0,1.03037592972
555,-1.0417094,-0.051590625,-0.25771874,40.764164,-73.92303,0.023776563,-0.058478124,0.008179688,-7.828484,4.697099,1490135956978,9.12950714738,0.0,1.03037601877
556,-0.9343525,-0.060000807,-0.27976257,40.764164,-73.92311,0.0002157959,0.005121382,0.0148439845,-7.803652,4.6822,1490135957012,9.10054841079,0.0,1.03037599735
557,-1.0339177,-0.058986083,-0.25368604,40.764168,-73.92311,0.0116379885,-0.01326209,0.009231968,-7.7812095,4.6687346,1490135957045,9.07437623466,0.0,1.03037598551
558,-0.9441225,-0.07222361,-0.18989891,40.764168,-73.92311,0.032031693,-0.071238935,0.03982018,-7.7587667,4.655269,1490135957079,9.04820369838,0.0,1.0303759755
559,-0.9400884,-0.033176757,-0.20717676,40.764168,-73.92311,-0.015654145,0.02078802,0.01370891,-7.7363243,4.6418037,1490135957112,9.02203165945,0.0,1.03037595972
560,-1.0434165,-0.08100029,-0.14941676,40.76417,-73.92311,0.007399927,-0.019912658,0.027886458,-7.713882,4.6283383,1490135957146,8.99585965482,0.0,1.0303759591
561,-0.97209615,-0.0141307255,-0.17498182,40.76417,-73.92311,0.021315085,-0.03619351,0.04039027,-7.691439,4.6148725,1490135957179,8.96968684414,0.0,1.03037595657
562,-1.0433904,0.033809155,-0.16002837,40.76417,-73.92311,-0.010880267,-0.059991036,0.00552088,-7.668997,4.601407,1490135957213,8.94351504531,0.0,1.03037598279
563,-1.0111046,0.0062970947,-0.1804498,40.764175,-73.92311,0.038007304,-0.02085554,-0.008449648,-7.6465545,4.5879416,1490135957246,8.91734286918,0.0,1.0303759707
564,-1.0051075,-0.011295044,-0.1861549,40.764175,-73.92311,0.016476987,-0.028815174,-0.027471516,-7.624112,4.5744762,1490135957280,8.89117069305,0.0,1.03037595854
565,-0.9853114,-0.043104246,-0.13448012,40.76418,-73.92311,0.013055213,0.031236103,-0.022124324,-7.6016693,4.5610104,1490135957314,8.86499813962,0.0,1.03037597338
566,-1.0364487,-0.029380456,-0.1543074,40.76418,-73.92311,0.021743206,-0.076846935,-0.018428383,-7.5792265,4.547545,1490135957347,8.83882570624,0.0,1.03037594369
567,-1.0019172,-0.10832124,-0.16125396,40.76418,-73.92311,0.01164886,-0.04262441,0.008300713,-7.5567846,4.5340796,1490135957381,8.81265404461,0.0,1.03037596637
568,-0.9406467,-0.047125243,-0.17462315,40.764183,-73.92311,0.0009257519,0.012131192,-0.0003574463,-7.534342,4.5206137,1490135957414,8.78648152548,0.0,1.03037599699
569,-0.98064715,-0.08270576,-0.15006416,40.764183,-73.92311,0.006964197,-0.032545324,0.013294385,-7.5118995,4.5071487,1490135957448,8.76030955515,0.0,1.03037594557
570,-0.9041125,-0.05648125,-0.12513125,40.764183,-73.92311,-0.000366875,0.005635625,0.03240125,-7.489457,4.493683,1490135957481,8.73413722467,0.0,1.03037596257
571,-0.9696144,-0.04338562,-0.13051416,40.764187,-73.92311,-0.037381846,0.0030627174,0.027184732,-7.4670143,4.4802175,1490135957515,8.70796482559,0.0,1.03037594815
572,-0.9360166,-0.010213281,-0.11357344,40.764187,-73.92311,0.012493774,0.0079764305,0.03297726,-7.444572,4.466752,1490135957548,8.68179276951,0.0,1.03037595736
573,-0.9760333,0.011949439,-0.12014304,40.764187,-73.92311,0.0033023902,0.021344412,0.007106184,-7.4221296,4.453286,1490135957582,8.65562037043,0.0,1.03037601021
574,-0.9303475,0.009335913,-0.121473245,40.76419,-73.92311,-0.006677997,0.031551097,0.018341305,-7.3996873,4.439821,1490135957616,8.6294485716,0.0,1.03037596997
575,-1.0071018,0.0054177125,-0.13840516,40.76419,-73.92311,0.016573125,0.031060496,-0.006997765,-7.377245,4.4263554,1490135957649,8.60327646406,0.0,1.03037598929
576,-0.95581996,0.0039799437,-0.17106004,40.76419,-73.92311,0.010591034,0.011221912,0.0038579956,-7.354802,4.41289,1490135957683,8.57710385919,0.0,1.03037594675
577,-0.9891312,-0.024009962,-0.22451495,40.764194,-73.92311,-0.043051757,0.086869396,6.269165e-05,-7.3323593,4.3994246,1490135957716,8.55093151156,0.0,1.03037592199
578,-0.9663062,0.014154174,-0.13946167,40.764194,-73.92311,-0.0108759105,0.018426713,-0.004842827,-7.3099174,4.3859587,1490135957750,8.52475959268,0.0,1.03037599566
579,-0.9807069,0.026966333,-0.19591445,40.764194,-73.92311,0.0007672339,0.00846798,-0.017732421,-7.2874746,4.372493,1490135957783,8.49858700495,0.0,1.03037599512
580,-0.9266039,0.02090404,-0.16937064,40.7642,-73.92311,-0.03143955,0.014033399,-0.026277117,-7.265032,4.359028,1490135957817,8.47241494887,0.0,1.03037593588
581,-1.0103514,-0.011949389,-0.20807591,40.7642,-73.92311,-0.03305097,0.027534503,-0.024261499,-7.242589,4.345562,1490135957850,8.44624203529,0.0,1.03037595342
582,-1.0176737,-0.016588697,-0.21290767,40.7642,-73.92311,-0.019323982,-0.040346198,-0.008566208,-7.220147,4.3320966,1490135957884,8.42007028791,0.0,1.03037597108
583,-0.9819565,-0.028802246,-0.13501978,40.764202,-73.92311,-0.036600098,-0.055483446,9.318848e-05,-7.1977043,4.318631,1490135957918,8.39389783738,0.0,1.03037596636
584,-0.96554667,0.010775024,-0.17817324,40.764202,-73.92311,-0.03836271,0.0037110278,-0.018811818,-7.175262,4.305166,1490135957951,8.36772603855,0.0,1.03037592473
585,-1.0442032,-0.012578125,-0.15039062,40.764202,-73.92311,-0.01396625,-0.054668438,-0.019655,-7.1528196,4.2917,1490135957985,8.34155363947,0.0,1.03037597947
586,-0.9153364,0.000962915,-0.16948211,40.764206,-73.923195,-0.035690702,-0.017405825,-0.015172622,-7.085378,4.2512355,1490135958018,8.26290413108,0.0,1.03037592367
587,-0.9767148,-0.012151513,-0.20201425,40.764206,-73.923195,-0.03147648,0.019292418,-0.02948149,-6.982373,4.1894317,1490135958052,8.14278027949,0.0,1.0303759946
588,-0.9747929,-0.008242602,-0.28980276,40.764206,-73.923195,-0.017324328,0.030662537,-0.023413245,-6.879368,4.1276283,1490135958085,8.02265663371,0.0,1.03037602489
589,-0.9424883,0.003210608,-0.34542122,40.764206,-73.923195,-0.012731716,-0.069989435,-0.0056971754,-6.776363,4.0658255,1490135958119,7.90253329662,0.0,1.03037599101
590,-0.8848831,0.022454077,-0.38839564,40.76421,-73.923195,-0.02538368,0.09725331,-0.039604645,-6.6733575,4.004022,1490135958152,7.78240917064,0.0,1.03037600015
591,-0.9879502,-0.001640564,-0.44781423,40.76421,-73.923195,-0.009858191,0.013834481,-0.027278781,-6.570352,3.9422188,1490135958186,7.66228519901,0.0,1.030375976
592,-0.8875766,-0.024203308,-0.49506664,40.76421,-73.923195,-0.022748645,0.09735666,-0.010814641,-6.467346,3.8804154,1490135958220,7.54216069573,0.0,1.03037593972
593,-0.9940227,-0.019196216,-0.5403365,40.76421,-73.923195,-0.031118842,0.064762026,-0.01745498,-6.3643413,3.818612,1490135958253,7.4220373072,0.0,1.03037599237
594,-0.93624747,-0.017072437,-0.5929074,40.764214,-73.923195,0.003343651,0.026425062,0.0035002222,-6.261336,3.7568085,1490135958287,7.30191335272,0.0,1.03037601623
595,-0.886465,0.0036779663,-0.615548,40.764214,-73.923195,-0.031338952,0.09813308,-0.016217371,-6.1583304,3.6950052,1490135958320,7.18178924389,0.0,1.03037599551
596,-1.0512755,-0.012088208,-0.6176457,40.764214,-73.923195,-0.018706508,-0.01720556,-0.018173242,-6.0553246,3.6332018,1490135958354,7.06166491211,0.0,1.03037597166
597,-0.8991626,-0.006260156,-0.6399837,40.764214,-73.923195,0.0030442749,0.008458886,-0.0027423585,-5.95232,3.571399,1490135958387,6.94154191802,0.0,1.03037596181
598,-1.0153042,-0.010391601,-0.70216435,40.764217,-73.923195,-0.04573567,0.044104096,-0.013374829,-5.8493147,3.5095956,1490135958421,6.82141801499,0.0,1.03037597424
599,-0.92142373,-0.0439458,-0.6700985,40.764217,-73.923195,-0.026675744,0.0064525246,0.0049318164,-5.7463093,3.4477923,1490135958454,6.70129407765,0.0,1.03037596664
600,-1.036075,-0.017375,-0.6949,40.764217,-73.923195,-0.0141675,-0.0621575,0.00061,-5.643304,3.3859887,1490135958488,6.58117007172,0.0,1.03037600567
601,-0.87882495,0.0146075925,-0.69844556,40.764217,-73.923195,-0.03712053,-0.05061952,0.016008945,-5.5402985,3.3241854,1490135958522,6.46104604864,0.0,1.0303759904
602,-1.0171944,-0.0331958,-0.6565217,40.764217,-73.923195,0.005347388,-0.120246775,-0.0137521,-5.437293,3.262382,1490135958555,6.34092197411,0.0,1.03037598809
603,-0.8983012,-0.0076739746,-0.62579066,40.76422,-73.923195,-0.01249187,0.0049786596,-0.017806172,-5.3342876,3.2005787,1490135958589,6.22079803678,0.0,1.03037598017
604,-0.9917574,-0.0015170044,-0.63804764,40.76422,-73.923195,-0.023184797,-0.0919909,-0.010797541,-5.2312827,3.1387758,1490135958622,6.10067473399,0.0,1.03037595788
605,-0.8787292,-0.043334484,-0.58911264,40.76422,-73.923195,0.022105042,0.026189988,-0.0027192396,-5.1282773,3.0769725,1490135958656,5.98055079666,0.0,1.03037594904
606,-0.9777588,-0.023496278,-0.6169339,40.76422,-73.923195,-0.03871161,-0.0389114,-0.00085130613,-5.0252714,3.015169,1490135958689,5.86042632768,0.0,1.0303759252
607,-0.8981647,-0.02077251,-0.6040273,40.76422,-73.923195,-0.018894788,0.054941237,0.01646137,-4.922266,2.9533656,1490135958723,5.7403023389,0.0,1.03037593024
608,-0.99377334,-0.04229336,-0.5667866,40.764225,-73.923195,-0.0119346585,-0.06665244,0.0023006664,-4.8192606,2.8915622,1490135958756,5.62017835012,0.0,1.03037593549
609,-0.9425995,-0.01849253,-0.5791219,40.764225,-73.923195,-0.0014978638,0.01467688,0.013691101,-4.716255,2.8297586,1490135958790,5.50005408694,0.0,1.03037595345
610,-1.010531,-0.013,-0.583948,40.764225,-73.923195,-0.022208171,-0.042978227,0.013121966,-4.61325,2.7679553,1490135958824,5.37993049261,0.0,1.03037598177
611,-0.9108889,-0.012020202,-0.56668687,40.764225,-73.923195,0.012595829,0.03753957,0.019802384,-4.5102444,2.706152,1490135958857,5.25980638378,0.0,1.0303759527
612,-1.0126423,-0.03557495,-0.6081955,40.764225,-73.923195,-0.015147534,-0.03218624,0.009542959,-4.4072394,2.644349,1490135958891,5.13968294379,0.0,1.03037593227
613,-0.9096816,-0.035687257,-0.61497194,40.764225,-73.923195,-0.022367842,-0.0022476416,0.026585435,-4.304234,2.5825455,1490135958924,5.01955890356,0.0,1.03037595529
614,-0.9470646,-0.009271216,-0.6233413,40.76423,-73.923195,-0.010688081,0.0014419458,-0.00050164305,-4.2012286,2.5207422,1490135958958,4.89943496623,0.0,1.03037594443
615,-0.9050375,-0.029309375,-0.57438123,40.76423,-73.923195,0.0006646875,-0.018644063,0.013677187,-4.0982237,2.458939,1490135958991,4.77931150909,0.0,1.03037596891
616,-0.93121,-0.003313379,-0.58963656,40.76423,-73.92325,-0.007589038,-0.011583557,-0.0065008425,-3.9973931,2.3984406,1490135959025,4.66172381289,0.0,1.03037595463
617,-0.93078274,-0.015618652,-0.58611804,40.76423,-73.92325,0.0057841795,0.02159606,-0.003147461,-3.8972647,2.3383636,1490135959058,4.54495505673,0.0,1.03037592469
618,-0.95279,-0.021740234,-0.5822322,40.76423,-73.92325,-0.005997722,0.0098605985,-0.0049895803,-3.7971365,2.2782865,1490135959092,4.42818642061,0.0,1.03037593576
619,-0.98445326,-0.023634864,-0.6273651,40.76423,-73.92325,-0.011140825,-0.08102068,0.010871714,-3.697009,2.21821,1490135959126,4.31141869344,0.0,1.03037591164
620,-0.9122202,-0.060416747,-0.53897905,40.764233,-73.92325,-0.025424719,0.076940954,0.0024775951,-3.5968807,2.1581328,1490135959159,4.19464992013,0.0,1.03037593114
621,-0.9433867,-0.026862549,-0.5491332,40.764233,-73.92325,-0.011123706,-0.099932626,0.020991256,-3.4967527,2.0980558,1490135959193,4.07788150697,0.0,1.03037594756
622,-0.9923274,-0.06184089,-0.499785,40.764233,-73.92325,0.021982424,-0.026062328,0.012724668,-3.3966246,2.037979,1490135959226,3.96111311095,0.0,1.03037590866
623,-0.86140066,-0.01579668,-0.51594687,40.764233,-73.92325,-0.029208086,-0.049849488,0.026501874,-3.2964964,1.9779018,1490135959260,3.84434442339,0.0,1.03037594323
624,-1.0178603,-0.024469983,-0.44913992,40.764233,-73.92325,-0.0011999694,-0.06557633,0.0036319995,-3.196368,1.9178246,1490135959293,3.72757556433,0.0,1.03037595237
625,-0.9089511,-0.023322877,-0.46185517,40.764233,-73.92325,-0.0055765687,-0.015484328,0.015040844,-3.09624,1.8577477,1490135959327,3.61080720261,0.0,1.03037594785
626,-1.0080197,-0.027599646,-0.41632676,40.764236,-73.92325,-0.0033262342,-0.046738192,0.0021095043,-2.9961119,1.7976706,1490135959360,3.49403865225,0.0,1.03037597739
627,-0.90444285,-0.0057214354,-0.4382312,40.764236,-73.92325,0.0098640965,0.02784264,0.011967951,-2.8959842,1.737594,1490135959394,3.37727070213,0.0,1.03037594295
628,-0.98747426,-0.0039983396,-0.41401827,40.764236,-73.92325,-0.010563384,-0.03895749,-0.0049663866,-2.795856,1.677517,1490135959428,3.26050211747,0.0,1.03037593234
629,-0.9446412,-0.028643798,-0.42349955,40.764236,-73.92325,0.011831988,0.010192446,0.0015945337,-2.6957278,1.61744,1490135959461,3.14373353281,0.0,1.03037592095
630,-0.99156874,-0.021125,-0.4076,40.764236,-73.92325,0.005621875,-0.0722,-0.015375,-2.5955997,1.5573628,1490135959495,3.02696493099,0.0,1.03037598234
631,-0.95621103,-0.0067377198,-0.44017556,40.764236,-73.92325,-0.019871429,0.06885464,-0.020097496,-2.4954715,1.4972858,1490135959528,2.91019634633,0.0,1.03037597204
632,-1.0015115,-0.05984668,-0.4170149,40.764236,-73.92325,-0.0117159765,-0.021674952,-0.01634977,-2.3953433,1.4372089,1490135959562,2.79342781312,0.0,1.03037593018
633,-0.9389912,-0.039876122,-0.42746457,40.764236,-73.92325,0.016708745,0.023311613,0.00090601563,-2.2952151,1.3771318,1490135959595,2.676659177,0.0,1.03037594874
634,-1.001939,-0.045688905,-0.4110609,40.764236,-73.92325,-0.0067777256,-0.020948257,-0.009233096,-2.1950877,1.3170552,1490135959629,2.55989148413,0.0,1.0303759623
635,-0.9170614,-0.034963228,-0.39493254,40.76424,-73.92325,-0.005479807,0.007907931,0.006940735,-2.0949595,1.2569782,1490135959662,2.44312289947,0.0,1.03037594907
636,-0.9810841,-0.025039539,-0.398,40.76424,-73.92325,-0.021569204,-0.01606031,-0.022311224,-1.9948311,1.196901,1490135959696,2.32635404041,0.0,1.030375964
637,-0.94615,-0.044262502,-0.38142082,40.76424,-73.92325,0.007602863,-0.022251474,-0.0029770033,-1.8947029,1.136824,1490135959730,2.20958545575,0.0,1.03037594947
638,-0.9528375,-0.048037075,-0.3995954,40.76424,-73.92325,0.009624523,0.008018813,-0.009439965,-1.7945747,1.076747,1490135959763,2.09281687108,0.0,1.03037593331
639,-0.96694374,-0.047056273,-0.3950381,40.76424,-73.92325,-0.009589069,-0.030910492,0.0023924194,-1.6944466,1.0166699,1490135959797,1.97604832072,0.0,1.03037598467
640,-0.9861669,-0.04141676,-0.3904999,40.76424,-73.92325,0.0012033898,-0.0081468355,0.0064799534,-1.5943184,0.9565929,1490135959830,1.85927973606,0.0,1.0303759687
641,-0.9452651,-0.023265136,-0.4144738,40.76424,-73.92325,-0.0019145483,-0.020196183,0.0025912768,-1.4941902,0.8965159,1490135959864,1.74251115139,0.0,1.03037595058
642,-0.9902236,-0.024102587,-0.39975497,40.76424,-73.92325,-0.0074607763,0.008523636,-0.0011774902,-1.3940626,0.83643925,1490135959897,1.6257432613,0.0,1.03037593514
643,-0.96660256,-0.038548097,-0.38115063,40.76424,-73.92325,0.004998413,-0.016008126,-0.0029666454,-1.2939345,0.77636224,1490135959931,1.50897475724,0.0,1.0303759514
644,-0.9741191,-0.019648291,-0.40647003,40.76424,-73.92325,0.00092644774,-0.007673269,-0.007781831,-1.1938064,0.7162852,1490135959964,1.39220623775,0.0,1.03037598887
645,-0.97073126,-0.037028126,-0.39702812,40.76424,-73.92325,-0.006024375,-0.009502187,-0.002051875,-1.0936781,0.6562081,1490135959998,1.27543751588,0.0,1.03037599286
646,-0.96421325,-0.04681162,-0.3846413,40.76424,-73.92328,0.0010531128,-0.0170156,0.004577344,-1.0670693,0.6402429,1490135960031,1.24440663049,0.0,1.03037591694
647,-0.9732717,-0.036144923,-0.3815459,40.76424,-73.92328,0.0023255518,-0.02525459,0.006154253,-1.0440514,0.62643206,1490135960065,1.21756332551,0.0,1.03037596732
648,-0.93712014,-0.034984984,-0.37098497,40.76424,-73.92328,0.0016434594,-0.008966355,-0.0014445484,-1.0210334,0.61262125,1490135960099,1.19071995023,0.0,1.03037595515
649,-0.97397137,-0.033365406,-0.36322108,40.76424,-73.92328,0.0045707286,-0.033214968,-0.008089,-0.9980156,0.59881055,1490135960132,1.16387680303,0.0,1.03037594978
650,-0.94655836,-0.04571051,-0.35868537,40.76424,-73.92328,1.6228027e-05,-0.0055507068,0.0012219055,-0.9749976,0.5849997,1490135960166,1.13703340716,0.0,1.03037596679
651,-0.9933226,-0.05708506,-0.33841935,40.764244,-73.92328,-0.0029325671,-0.014580076,-0.002342146,-0.9519796,0.57118887,1490135960199,1.11019002159,0.0,1.03037596918
652,-0.9603058,-0.044737488,-0.336115,40.764244,-73.92328,0.0053095766,-0.015002936,0.0071082483,-0.92896163,0.55737805,1490135960233,1.08334666688,0.0,1.03037597801
653,-0.9700323,-0.035458118,-0.32142583,40.764244,-73.92328,-3.0700685e-05,-0.019007824,-0.00024191894,-0.9059437,0.5435673,1490135960266,1.05650338248,0.0,1.03037594996
654,-0.9686413,-0.04657495,-0.29114497,40.764244,-73.92328,-0.0018813465,-0.013088007,0.0078816125,-0.8829257,0.5297564,1490135960300,1.02965996089,0.0,1.03037601039
655,-1.0032136,-0.04672406,-0.23356433,40.764244,-73.92328,0.0041654995,-0.033796757,0.001722179,-0.85990775,0.5159456,1490135960333,1.00281663362,0.0,1.03037601419
656,-1.0000802,-0.03982676,-0.16438636,40.764244,-73.92328,0.0033760546,-0.027647667,0.0034456432,-0.83688974,0.5021348,1490135960367,0.975973254904,0.0,1.03037598658
657,-1.0179393,-0.04647815,-0.095138304,40.764244,-73.92328,-0.0019301929,-0.024291374,-0.00046311037,-0.8138719,0.4883241,1490135960401,0.94913007341,0.0,1.03037595921
658,-1.0134867,-0.05138496,-0.0502688,40.764244,-73.92328,-0.0036626563,-0.023634087,-0.003083208,-0.7908539,0.4745133,1490135960434,0.922286703266,0.0,1.03037593397
659,-1.0214598,-0.049057692,-0.0150227295,40.764244,-73.92328,0.0051648268,-0.051045246,-0.004349092,-0.767836,0.46070245,1490135960468,0.895443393148,0.0,1.03037601255
660,-0.9960625,-0.0354375,-0.021625,40.764244,-73.92328,0.00649375,-0.06798125,-0.00193125,-0.74481803,0.44689167,1490135960501,0.868600059019,0.0,1.03037598542
661,-0.9845437,-0.04477185,-0.02278252,40.764244,-73.92328,-0.00054736086,-0.051097445,0.00036174804,-0.7218,0.43308085,1490135960535,0.841756652862,0.0,1.03037596063
662,-0.9827761,-0.051056642,-0.03633716,40.764244,-73.92328,0.002604917,-0.046618856,-0.00072274415,-0.698782,0.41927004,1490135960568,0.814913277574,0.0,1.03037594263
663,-0.9737818,-0.04914685,-0.06038882,40.764244,-73.92328,0.00048940186,-0.02511863,-0.006222063,-0.675764,0.4054592,1490135960602,0.788069886851,0.0,1.03037595605
664,-0.9689383,-0.046696655,-0.09151153,40.764244,-73.92328,0.006118928,-0.03127157,-0.0042338464,-0.6527462,0.3916485,1490135960635,0.761226739656,0.0,1.03037594788
665,-0.95210415,-0.04626566,-0.12104679,40.764244,-73.92328,-0.0014663587,-0.0006387158,-0.00036175415,-0.6297282,0.37783766,1490135960669,0.734383348933,0.0,1.03037596247
666,-0.9757962,-0.05555503,-0.12679625,40.764244,-73.92328,-0.0036521398,0.013754812,0.00072848145,-0.60671026,0.36402684,1490135960703,0.707540019949,0.0,1.03037599756
667,-0.96354103,-0.045118544,-0.12776291,40.764244,-73.92328,6.168823e-05,0.025444953,0.0072383117,-0.5836923,0.35021603,1490135960736,0.680696678961,0.0,1.0303760077
668,-0.9855058,-0.04523667,-0.11408583,40.764244,-73.92328,-0.003949336,0.017401328,-0.0015908325,-0.5606743,0.33640522,1490135960770,0.653853303673,0.0,1.0303759872
669,-0.98779005,-0.04584253,-0.09852625,40.764244,-73.92328,0.0035975573,0.0014097705,0.0010713122,-0.5376563,0.3225944,1490135960803,0.62700992324,0.0,1.03037597862
670,-0.9862812,-0.042195775,-0.10157294,40.764244,-73.92328,7.436646e-05,-0.012084666,-0.0029548083,-0.51463836,0.30878362,1490135960837,0.600166614836,0.0,1.03037596355
671,-1.0008154,-0.04526162,-0.09281541,40.764244,-73.92328,0.001,-0.010804176,0.0014130542,-0.49162036,0.2949728,1490135960870,0.573323234403,0.0,1.03037595306
672,-1.0134401,-0.047,-0.091859914,40.764244,-73.92328,0.0017560205,-0.017748006,0.0010919849,-0.46860254,0.28116208,1490135960904,0.546480059768,0.0,1.03037595409
673,-1.0081633,-0.046052296,-0.11068623,40.764244,-73.92328,-2.524414e-06,-0.014904819,0.0011048194,-0.4455846,0.26735127,1490135960937,0.51963673593,0.0,1.03037598493
674,-1.0010066,-0.04475249,-0.11912707,40.764244,-73.92328,0.0016816284,-0.02949807,-0.00015083008,-0.42256662,0.25354046,1490135960971,0.492793377792,0.0,1.03037597737
675,-0.9872438,-0.039121874,-0.1202125,40.764244,-73.92329,0.0007715625,-0.016836874,0.0006875,-0.4019796,0.24118823,1490135961005,0.468784983875,0.0,1.03037596681
676,-0.98522997,-0.044980835,-0.1259425,40.764244,-73.92329,0.00096783694,-0.014866082,0.0031044115,-0.3950742,0.23704499,1490135961038,0.460731972832,0.0,1.03037595178
677,-0.98848766,-0.048975635,-0.114756,40.764244,-73.92329,0.0031708544,-0.004730625,2.9145507e-05,-0.38816878,0.23290174,1490135961072,0.452678939494,0.0,1.03037593243
678,-1.0002924,-0.050663747,-0.10135379,40.764244,-73.92329,0.0015751197,-0.013427969,0.0023360157,-0.38126343,0.2287585,1490135961105,0.444625971326,0.0,1.0303759741
679,-0.9979163,-0.044055812,-0.09098605,40.764244,-73.92329,0.0027034937,-0.009519201,-7.03479e-05,-0.37435806,0.22461529,1490135961139,0.436573001443,0.0,1.0303759348
680,-1.0016832,-0.043850023,-0.08585002,40.764244,-73.92329,0.0007566455,-0.014169888,-0.002509159,-0.36745268,0.22047204,1490135961172,0.428520002405,0.0,1.03037596207
681,-0.9893694,-0.05204502,-0.089693725,40.764244,-73.92329,0.0033839294,-0.01152262,0.0021192627,-0.36054727,0.2163288,1490135961206,0.420466982787,0.0,1.03037593327
682,-0.98857623,-0.04695292,-0.09514125,40.764244,-73.92329,-0.0036951709,0.003506941,-0.0011873742,-0.35364193,0.21218555,1490135961239,0.412414018049,0.0,1.03037601148
683,-0.9814496,-0.049623962,-0.10162396,40.764244,-73.92329,-0.0022541285,-0.0011634558,0.0019514416,-0.34673652,0.20804231,1490135961273,0.404360998431,0.0,1.03037598252
684,-0.988025,-0.046012513,-0.1115975,40.764244,-73.92329,0.00054749753,-0.010698773,0.0,-0.3398311,0.20389906,1490135961307,0.396307965093,0.0,1.03037596104
685,-0.9768449,-0.039561488,-0.11808021,40.764244,-73.92329,-0.0004228955,-0.012549961,0.0033432336,-0.33292574,0.19975582,1490135961340,0.38825498835,0.0,1.0303759961
686,-1.0002738,-0.04296831,-0.11596831,40.764244,-73.92329,-0.00010119629,-0.018015472,0.0008259338,-0.32602033,0.19561258,1490135961374,0.380201968732,0.0,1.03037596498
687,-0.9924958,-0.049,-0.11387124,40.764244,-73.92329,0.0053405934,-0.015268125,0.0011830737,-0.31911498,0.19146937,1490135961407,0.372149015998,0.0,1.03037594633
688,-1.0080733,-0.051453322,-0.11088667,40.764244,-73.92329,-0.00088198244,-0.012565649,-0.0013303467,-0.3122096,0.18732613,1490135961441,0.364096022105,0.0,1.03037595513
689,-0.9993283,-0.05737312,-0.10762688,40.764244,-73.92329,0.0062063527,-0.017,0.002268208,-0.3053042,0.18318288,1490135961474,0.356043005917,0.0,1.0303759595
690,-0.9875625,-0.04678125,-0.100125,40.764244,-73.92329,0.00051875,-0.01169875,0.0026025,-0.2983988,0.17903963,1490135961508,0.34798998973,0.0,1.03037596408
691,-0.99,-0.04997478,-0.10212124,40.764244,-73.92329,-0.0021784082,-0.009069909,0.004435752,-0.29149342,0.17489639,1490135961541,0.339936995836,0.0,1.03037597392
692,-0.98258245,-0.04729668,-0.09617583,40.764244,-73.92329,0.0011258301,0.0016708154,0.0033894093,-0.284588,0.17075315,1490135961575,0.331883967644,0.0,1.03037592222
693,-0.98552066,-0.04253196,-0.09849436,40.764244,-73.92329,-0.0014929321,-0.007835938,-0.0018821044,-0.2776826,0.1666099,1490135961609,0.323830951456,0.0,1.03037592622
694,-0.99343663,-0.042795777,-0.10117958,40.764244,-73.92329,0.002617887,-0.011230703,0.0024295775,-0.2707773,0.16246668,1490135961642,0.315778036452,0.0,1.03037601188
695,-0.98371154,-0.038140684,-0.0951417,40.764244,-73.92329,9.2712406e-05,-0.00920332,0.00029667967,-0.2638719,0.15832344,1490135961676,0.307725025409,0.0,1.03037599056
696,-1.00351,-0.045930006,-0.09867499,40.764248,-73.92329,0.0017430102,-0.00991549,0.0027849975,-0.2569665,0.1541802,1490135961709,0.299672014366,0.0,1.03037596809
697,-1.0041077,-0.049,-0.08608563,40.764248,-73.92329,0.003359336,-0.016477957,0.0009110217,-0.2500611,0.15003696,1490135961743,0.291619003323,0.0,1.03037594439
698,-0.9957946,-0.046328746,-0.08167125,40.764248,-73.92329,0.00692463,-0.022049753,0.0032033776,-0.2431557,0.14589371,1490135961776,0.283565987135,0.0,1.03037594958
699,-0.9945681,-0.047886852,-0.087408766,40.764248,-73.92329,0.0017942028,-0.013593904,0.00024561767,-0.23625031,0.14175047,1490135961810,0.275512984667,0.0,1.03037594262
700,-0.9852625,-0.052820764,-0.07621254,40.764248,-73.92329,-0.0016320618,-0.004029236,-0.0005916748,-0.22934493,0.13760723,1490135961843,0.267459990774,0.0,1.03037595448
701,-0.99962384,-0.054776758,-0.073764525,40.764248,-73.92329,0.0010290979,-0.0066539454,-5.2905274e-05,-0.22243954,0.13346398,1490135961877,0.259406983161,0.0,1.03037598029
702,-0.99120873,-0.05121494,-0.07719626,40.764248,-73.92329,0.0020839844,-0.010163709,-0.00026761476,-0.2155342,0.12932077,1490135961911,0.251354039003,0.0,1.03037597365
703,-0.99241596,-0.046905372,-0.07844209,40.764248,-73.92329,-0.0014894336,-0.010914506,0.0017565967,-0.2086288,0.12517752,1490135961944,0.243301022815,0.0,1.03037598067
704,-0.99369335,-0.0378667,-0.08560999,40.764248,-73.92329,-0.0031440137,-0.008521328,0.0041793385,-0.20172341,0.12103428,1490135961978,0.235248020347,0.0,1.03037597358
705,-0.9923125,-0.04365625,-0.08890312,40.764248,-73.92329,-0.003423125,-0.0065671876,0.0003471875,-0.19802503,0.11881524,1490135962011,0.230934998999,0.0,1.03037600221
706,-1.0004395,-0.044432934,-0.08537583,40.764248,-73.92329,0.0047205715,-0.013125691,-0.0015154517,-0.20032682,0.12019633,1490135962045,0.233619332584,0.0,1.03037595295
707,-0.9960102,-0.043091845,-0.09785713,40.764248,-73.92329,0.0038657226,-0.009217969,9.602051e-05,-0.20262861,0.12157741,1490135962078,0.236303661023,0.0,1.0303759411
708,-0.9903275,-0.04632495,-0.08400503,40.764248,-73.92329,0.0011095362,-0.0060987915,-0.0006457544,-0.20493042,0.122958496,1490135962112,0.238988009699,0.0,1.03037595105
709,-0.993548,-0.04847676,-0.08772601,40.764248,-73.92329,-0.0006047974,-0.0024897766,0.0004347229,-0.2072322,0.124339566,1490135962145,0.241672324419,0.0,1.03037595368
710,-0.9986334,-0.059541747,-0.08006874,40.764248,-73.92329,0.0017937671,-0.012166641,8.0203856e-05,-0.209534,0.12572065,1490135962179,0.244356663491,0.0,1.03037594923
711,-0.9928087,-0.052611206,-0.08580249,40.764248,-73.92329,0.005781537,-0.015698008,0.0011750623,-0.2118358,0.12710173,1490135962213,0.247041000505,0.0,1.03037595876
712,-0.99029666,-0.045135,-0.089865,40.764248,-73.92329,-0.0005015051,-0.011970664,0.001243335,-0.2141376,0.12848282,1490135962246,0.249725342665,0.0,1.03037593375
713,-0.98644835,-0.049,-0.088392295,40.764248,-73.92329,-0.0053925966,-0.0052180076,0.0027818726,-0.2164394,0.12986389,1490135962280,0.252409674534,0.0,1.03037597722
714,-0.99473375,-0.05193501,-0.08766247,40.764248,-73.92329,-0.00019176025,-0.0046300963,0.0016675049,-0.21874121,0.13124497,1490135962313,0.255094020123,0.0,1.03037600632
715,-1.0022917,-0.047817785,-0.092885375,40.764248,-73.92329,0.00019278687,-0.0066004945,-2.3221435e-05,-0.22104299,0.13262606,1490135962347,0.257778345133,0.0,1.03037594168
716,-0.9937134,-0.035783447,-0.093375795,40.764248,-73.92329,0.00091391726,-0.016318593,0.0029938207,-0.2233448,0.13400713,1490135962380,0.260462685577,0.0,1.03037600348
717,-0.99563193,-0.04249695,-0.09083435,40.764248,-73.92329,0.00018312989,-0.013141953,0.0019985572,-0.22564659,0.1353882,1490135962414,0.263147008871,0.0,1.03037602491
718,-0.99321926,-0.0475542,-0.08533252,40.764248,-73.92329,0.0037401074,-0.019173305,0.0011891602,-0.22794837,0.1367693,1490135962447,0.265831339026,0.0,1.03037592978
719,-0.9910217,-0.048266258,-0.08324458,40.764248,-73.92329,0.0059328782,-0.014328786,-0.0003175879,-0.23025016,0.13815036,1490135962481,0.268515657175,0.0,1.03037598345
720,-0.9904,-0.0462,-0.0874,40.764248,-73.92329,0.003545,-0.01361,-0.001315,-0.23255196,0.13953145,1490135962515,0.271199999334,0.0,1.03037596018
721,-0.9874777,-0.04626748,-0.08586626,40.764248,-73.92329,-0.0019226562,-0.0003546875,-0.0016831299,-0.23485376,0.14091253,1490135962548,0.273884336349,0.0,1.03037596867
722,-0.9990675,-0.0536687,-0.08539878,40.764248,-73.92329,-0.0024631983,-0.003403413,-0.0006480762,-0.23715556,0.1422936,1490135962582,0.276568668218,0.0,1.030376008
723,-1.0031644,-0.055996336,-0.08716809,40.764248,-73.92329,0.0,-0.007047969,0.0011,-0.23945734,0.14367469,1490135962615,0.279252993227,0.0,1.03037594831
724,-0.9976191,-0.04964076,-0.08642421,40.764248,-73.92329,0.0006385657,-0.014189297,0.0015391724,-0.24175912,0.14505576,1490135962649,0.281937307947,0.0,1.03037595059
725,-0.9915083,-0.04226245,-0.08805731,40.764248,-73.92329,-0.00017243042,-0.01296425,0.0032238537,-0.24406093,0.14643684,1490135962682,0.284621653536,0.0,1.03037597693
726,-0.9850063,-0.04507002,-0.08226751,40.764248,-73.92329,-0.0043284716,-0.007196151,0.002200503,-0.24636273,0.14781791,1490135962716,0.287305985405,0.0,1.03037601471
727,-0.9901044,-0.049087916,-0.08128021,40.764248,-73.92329,0.00024399048,-0.016037283,0.0015164344,-0.24866453,0.14919901,1490135962749,0.28999033271,0.0,1.03037596309
728,-0.99243337,-0.04566001,-0.085896656,40.764248,-73.92329,-0.00043983763,-0.0053681703,-0.00045666503,-0.25096634,0.1505801,1490135962783,0.292674683444,0.0,1.03037595929
729,-0.99001247,-0.041509338,-0.08219502,40.764248,-73.92329,0.0067127785,-0.03280406,0.0012848133,-0.25326815,0.15196118,1490135962816,0.295359029033,0.0,1.03037598459
730,-0.98950213,-0.045189515,-0.09507922,40.764248,-73.92329,-0.0009439709,-0.0024729127,-0.0002541748,-0.25556993,0.15334226,1490135962850,0.298043348898,0.0,1.03037595765
731,-1.0018464,-0.056649256,-0.09178358,40.764248,-73.92329,0.0013599255,-0.020684574,0.005344872,-0.25787175,0.15472333,1490135962884,0.300727697917,0.0,1.03037602813
732,-0.9919874,-0.047527466,-0.11005493,40.764248,-73.92329,0.0072687133,-0.010712031,0.0022927758,-0.2601735,0.15610442,1490135962917,0.303411997201,0.0,1.03037592215
733,-0.9958306,-0.03977959,-0.108440824,40.764248,-73.92329,-0.0021746876,-0.02081083,0.0011126562,-0.2624753,0.1574855,1490135962951,0.306096334216,0.0,1.03037593008
734,-0.9831825,-0.045984596,-0.110439576,40.764248,-73.92329,0.0004005713,0.00026506593,0.0017483399,-0.2647771,0.15886655,1490135962984,0.308780655795,0.0,1.03037602119
735,-0.9950344,-0.048725,-0.113034375,40.764248,-73.923294,-0.00516875,-0.0064515625,-0.00108125,-0.26566565,0.15939969,1490135963018,0.309816879401,0.0,1.0303759962
