,acceleration_x,acceleration_y,acceleration_z,gps_lat,gps_long,gyro_x,gyro_y,gyro_z,speed_x,speed_y,timestamp
0,-0.994,-0.001,-0.051,40.763565,-73.92182,-0.0407,0.0225,0.0143,-3.3922873,1.9894763,1490135938356
1,-1.0170666,-0.02046654,-0.044866893,40.76357,-73.92182,-0.009341691,-0.016983561,-0.0088832155,-3.4377131,2.0279007,1490135938422
2,-0.913933,0.020800268,-0.09786666,40.76357,-73.92182,-0.01617491,0.019099966,-0.071933225,-3.483138,2.0663245,1490135938489
3,-0.925,-0.0974,-0.0842,40.76357,-73.92182,-0.025025,0.058225,-0.03135,-3.528564,2.1047487,1490135938556
4,-1.0284005,-0.09086702,-0.09340023,40.763573,-73.92182,-0.017408317,0.038191374,-0.019024994,-3.5739896,2.1431732,1490135938622
5,-1.0772663,-0.13826698,-0.06906676,40.763573,-73.92182,-0.023516687,0.038625102,0.050191585,-3.619415,2.181597,1490135938689
6,-1.1068,-0.078,-0.0678,40.763577,-73.92182,-0.031425,-0.031375,0.044075,-3.6648407,2.2200212,1490135938756
7,-1.0287334,-0.046600256,-0.08299982,40.763577,-73.92182,-0.027899995,-0.013650291,0.048041604,-3.7102664,2.2584455,1490135938822
8,-0.99580014,-0.007400195,-0.08773314,40.76358,-73.92182,0.0047665234,-0.011933047,0.05259172,-3.7556918,2.2968693,1490135938889
9,-0.9728,0.0364,-0.109,40.76358,-73.92182,-0.02095,0.00205,0.0291,-3.8011174,2.3352938,1490135938956
10,-1.0013336,-0.014866834,-0.0896665,40.763584,-73.92187,-0.0072915857,0.017166333,-0.006183313,-3.830899,2.3635104,1490135939022
11,-1.0093997,-0.01699994,-0.11580002,40.763584,-73.92187,-0.041958205,0.049541693,-0.00841657,-3.8303127,2.3719122,1490135939089
12,-1.004,-0.0162,-0.1302,40.763584,-73.92187,-0.03815,0.024775,-0.0153,-3.8297265,2.3803139,1490135939156
13,-0.9666,-0.033066615,-0.107266635,40.763588,-73.92187,-0.0027998954,-0.013977741,-0.036866743,-3.8291404,2.388716,1490135939222
14,-1.0550956,-0.091587424,-0.07492068,40.763588,-73.92187,-0.010360072,-0.07303297,0.025153244,-3.8285542,2.3971179,1490135939289
15,-0.98945,-0.02765,-0.04945,40.763588,-73.92187,-0.02908,0.04728,-0.01472,-3.8279676,2.4055197,1490135939356
16,-0.9475167,-0.026749939,-0.108883485,40.76359,-73.92187,-0.02297344,0.042586714,0.019766534,-3.8273816,2.4139218,1490135939422
17,-0.9599501,-0.028499877,-0.09823347,40.76359,-73.92187,-0.0024602306,0.0076733083,0.015233374,-3.826795,2.4223235,1490135939489
18,-0.9952,-0.0672,-0.14865,40.763596,-73.92187,0.01278,0.01454,0.02766,-3.826209,2.4307256,1490135939556
19,-0.99535006,0.0037664794,-0.12508294,40.763596,-73.92187,-0.039059997,0.017040048,0.010813299,-3.8256228,2.4391272,1490135939622
20,-0.96155,0.017949866,-0.09738339,40.763596,-73.92187,-0.026873248,0.00857971,-0.0101666385,-3.8250365,2.447529,1490135939689
21,-0.98525,-0.0088,-0.09975,40.7636,-73.92187,-0.01048,0.0093,-0.0091,-3.8244503,2.455931,1490135939756
22,-0.9628667,-0.026216736,-0.109216735,40.7636,-73.92187,-0.00062668213,0.008613628,-0.03628006,-3.8238642,2.464333,1490135939822
23,-1.0169668,-0.06856648,-0.09948341,40.7636,-73.92187,-0.0066800513,-0.033213302,-0.024606736,-3.823278,2.472735,1490135939889
24,-0.96355,-0.10645,-0.10925,40.763603,-73.92187,-0.00666,0.01088,-0.0337,-3.8226917,2.4811366,1490135939956
25,-0.97899973,-0.06578326,-0.1117334,40.763603,-73.92191,0.021353316,-0.04439994,-0.016853303,-3.8223765,2.4822896,1490135940022
26,-1.0114332,-0.06048341,-0.111650035,40.763607,-73.92191,0.025799897,-0.03426644,-0.03491334,-3.8225875,2.4693706,1490135940089
27,-0.97675,-0.1137,-0.06805,40.763607,-73.92191,0.02258,-0.07464,0.00346,-3.8227983,2.4564514,1490135940156
28,-0.9574167,-0.08678327,-0.09828339,40.763607,-73.92191,0.035819888,0.026780052,-0.026733313,-3.8230095,2.4435327,1490135940222
29,-0.96281666,-0.10726665,-0.08836667,40.76361,-73.92191,0.063099936,-0.034399938,-0.0038999878,-3.8232205,2.430614,1490135940289
30,-0.99625,-0.10065,-0.1211,40.76361,-73.92191,0.0464,0.02718,0.01042,-3.8234315,2.417695,1490135940356
31,-1.03425,-0.071283385,-0.120216735,40.763615,-73.92191,0.03071996,0.0047665895,0.027033398,-3.8236427,2.404776,1490135940422
32,-0.9397501,-0.052366674,-0.10565004,40.763615,-73.92191,0.025206756,0.028446298,0.013693458,-3.8238535,2.3918571,1490135940489
33,-1.0016,-0.03475,-0.09305,40.763615,-73.92191,0.04968,0.00696,0.00396,-3.8240645,2.3789382,1490135940556
34,-0.9958832,-0.027600098,-0.08061664,40.76362,-73.92191,0.054993395,-0.042053375,-0.00961999,-3.8242755,2.3660192,1490135940622
35,-1.0030831,-0.060399853,-0.08118358,40.76362,-73.92191,0.035933368,0.015766766,-0.03977332,-3.8244863,2.3531003,1490135940689
36,-0.98365,-0.0484,-0.1232,40.763622,-73.92191,0.05238,-0.00298,-0.03286,-3.8246975,2.3401814,1490135940756
37,-0.9935665,-0.106216736,-0.09809998,40.763622,-73.92191,0.046646696,-0.05544659,-0.0035999694,-3.8249085,2.3272626,1490135940822
38,-0.96958345,-0.12724994,-0.11179995,40.763622,-73.92191,0.04164664,-0.042733368,0.008286635,-3.8251195,2.3143435,1490135940889
39,-1.00325,-0.1116,-0.074,40.763626,-73.92191,0.03222,-0.04936,0.02076,-3.8253303,2.3014247,1490135940956
40,-0.99888325,-0.082583316,-0.050166626,40.763626,-73.92195,0.027046697,-0.049786642,0.020013358,-3.841708,2.2992454,1490135941022
41,-0.98181665,-0.083466455,-0.027183581,40.76363,-73.92195,0.011613334,0.0005135107,0.00837999,-3.8894668,2.3179142,1490135941089
42,-0.98095,-0.05875,-0.03375,40.76363,-73.92195,0.03636,-0.02108,0.01746,-3.9372256,2.336583,1490135941156
43,-0.9612669,-0.027683532,-0.04393335,40.76363,-73.92195,0.04219976,-0.008566601,0.005426603,-3.9849846,2.3552516,1490135941222
44,-0.9598336,-0.073533304,-0.01875006,40.763634,-73.92195,0.042253297,-0.012306914,0.021353317,-4.0327435,2.3739204,1490135941289
45,-0.99465,-0.0727,0.00935,40.763634,-73.92195,0.04098,-0.03492,0.01004,-4.0805025,2.3925889,1490135941356
46,-1.0223162,-0.06284992,0.013433227,40.763638,-73.92195,0.018066699,-0.059933443,0.015526799,-4.1282616,2.4112577,1490135941422
47,-1.0452833,-0.09284984,0.0022998292,40.763638,-73.92195,0.008379972,-0.04769297,0.004979911,-4.17602,2.4299262,1490135941489
48,-1.02295,-0.05475,-0.01595,40.763638,-73.92195,0.01454,-0.01492,-0.0044,-4.223779,2.448595,1490135941556
49,-1.0182666,-0.0532666,-0.009583313,40.76364,-73.92195,0.018873373,-0.02601345,0.0033266332,-4.2715387,2.4672637,1490135941622
50,-0.96869993,-0.0786665,-0.035100024,40.76364,-73.92195,-0.013046507,0.02711318,0.015119986,-4.3192973,2.4859324,1490135941689
51,-0.9803,-0.09425,0.0103,40.763645,-73.92195,0.02824,0.00116,-0.00436,-4.367056,2.504601,1490135941756
52,-0.98463345,-0.044149842,-0.022266602,40.763645,-73.92195,0.003093247,0.0012932776,0.031293303,-4.4148154,2.52327,1490135941822
53,-1.0161831,-0.041300073,0.019966576,40.76365,-73.92195,0.0072866664,0.031406585,0.011040013,-4.462574,2.5419383,1490135941889
54,-1.0188,-0.02805,-0.0316,40.76365,-73.92195,0.01036,-0.00132,0.00348,-4.510333,2.560607,1490135941956
55,-1.0394665,-0.033499878,-0.025700074,40.763653,-73.92201,-0.004233252,-0.0139536755,0.005393345,-4.541854,2.5729282,1490135942022
56,-1.0180666,-0.028683215,-0.018366674,40.763653,-73.92201,-0.020039922,-0.0114132,0.012086685,-4.541854,2.5729287,1490135942089
57,-0.99615,-0.0167,-0.03505,40.763653,-73.92201,-0.0046,0.01574,0.0011,-4.541854,2.5729284,1490135942156
58,-1.0174668,-0.034033325,-0.023466798,40.763657,-73.92201,0.00610668,0.017586475,-0.011440029,-4.541854,2.5729284,1490135942222
59,-1.0168666,-0.051133446,-0.058449987,40.763657,-73.92201,-0.013106645,0.033606555,0.004633356,-4.541854,2.5729284,1490135942289
60,-1.02225,-0.05565,-0.0585,40.76366,-73.92201,-0.00404,0.00862,0.01846,-4.541854,2.5729284,1490135942356
61,-1.0066166,-0.0414668,-0.066866696,40.76366,-73.92201,0.011313286,-0.02472645,0.032726653,-4.541854,2.5729284,1490135942422
62,-0.9584834,-0.029433277,-0.05895011,40.763664,-73.92201,-0.0037132788,0.025466302,0.019406714,-4.541854,2.5729284,1490135942489
63,-0.9424,-0.06985,-0.0415,40.763664,-73.92201,0.00878,0.0137,0.02484,-4.541854,2.5729284,1490135942556
64,-1.0090834,-0.040066652,-0.09474994,40.763664,-73.92201,0.0015532972,0.013419801,0.023653425,-4.541854,2.5729284,1490135942622
65,-0.99663144,-0.02315792,-0.09980702,40.763668,-73.92201,-0.0029206777,0.011233277,0.005352455,-4.541854,2.5729284,1490135942689
66,-1.0218,-0.0192,-0.0981,40.763668,-73.92201,0.008435,-0.02796,0.022325,-4.541854,2.5729284,1490135942756
67,-1.0141332,-0.019366736,-0.08926653,40.76367,-73.92201,0.003698419,-0.016580079,0.013886695,-4.541854,2.5729284,1490135942822
68,-1.0227001,-0.018033264,-0.064066894,40.76367,-73.92201,-0.004611722,-0.020018138,-0.0038616857,-4.541854,2.5729284,1490135942889
69,-0.9653,-0.0055,-0.1099,40.76367,-73.92201,-0.0139,0.021,-0.00994,-4.541854,2.5729282,1490135942956
70,-0.97349983,-0.03126677,-0.09720017,40.763676,-73.922066,-0.022908418,-0.039265145,0.015760034,-4.5485682,2.5794268,1490135943022
71,-1.0374331,-0.032299865,-0.08159997,40.763676,-73.922066,-0.015618553,-0.068499535,0.011073311,-4.5683165,2.59854,1490135943089
72,-1.0827,-0.0085,-0.0693,40.76368,-73.922066,-0.019015,-0.051185,-0.00536,-4.588064,2.6176531,1490135943156
73,-1.0308669,-0.00826665,-0.10423317,40.76368,-73.922066,-0.038318366,0.017532935,-0.030118292,-4.607812,2.6367664,1490135943222
74,-0.97213316,0.016166687,-0.10669989,40.763683,-73.922066,-0.048146427,0.059481595,-0.036438216,-4.6275597,2.6558795,1490135943289
75,-1.0067,-0.0342,-0.1005,40.763683,-73.922066,-0.014255,-0.06023,-0.004265,-4.647308,2.6749926,1490135943356
76,-1.0410999,-0.03170011,-0.09376671,40.763687,-73.922066,-0.025068035,-0.014665338,-0.014479907,-4.6670556,2.6941056,1490135943422
77,-0.981667,0.0131664425,-0.1117334,40.763687,-73.922066,-0.06193824,-0.017553134,-0.009630056,-4.686803,2.7132187,1490135943489
78,-0.9498,-0.0054,-0.1889,40.76369,-73.922066,-0.04342,-0.01684,-0.017075,-4.7065516,2.7323318,1490135943556
79,-0.9944331,-0.003833313,-0.097366855,40.76369,-73.922066,0.003419995,-0.05721827,0.009701727,-4.7262993,2.751445,1490135943622
80,-1.0102999,-0.01843341,-0.07196649,40.763695,-73.922066,-0.008978446,-0.011903147,-0.023711674,-4.746047,2.770558,1490135943689
81,-0.9671,1e-04,-0.1304,40.763695,-73.922066,-0.02204,-0.00097,-0.018335,-4.7657948,2.7896712,1490135943756
82,-0.9640998,-0.024900036,-0.08686668,40.7637,-73.922066,-0.031486742,0.007627026,-0.009825055,-4.785543,2.8087845,1490135943822
83,-0.98883355,-0.00966687,-0.09149982,40.7637,-73.922066,-0.030294938,0.015104696,-0.0016717858,-4.8052907,2.8278975,1490135943889
84,-1.0143,-0.0487,-0.1146,40.763702,-73.922066,-0.02505,-0.028135,0.00226,-4.8250384,2.8470106,1490135943956
85,-1.0010332,-0.062733226,-0.10280007,40.763706,-73.922134,-0.0104668215,-0.045552343,0.020626733,-4.841254,2.8652995,1490135944022
86,-0.99066675,0.034833558,-0.09449957,40.763706,-73.922134,-0.034208305,-0.04525849,0.002294962,-4.8506145,2.8819876,1490135944089
87,-0.9551,0.0123,-0.09,40.76371,-73.922134,-0.013695,-0.03094,-0.039095,-4.859974,2.8986754,1490135944156
88,-0.95266664,0.012666382,-0.11660015,40.76371,-73.922134,-0.0028301147,-0.01856441,-0.03059674,-4.8693333,2.9153638,1490135944222
89,-1.0109669,-0.0368667,-0.06563312,40.763714,-73.922134,-0.012395109,-0.024203612,-0.001558368,-4.878693,2.9320517,1490135944289
90,-0.9654,-0.0436,-0.1025,40.763714,-73.922134,-0.023695,0.0202,-0.01873,-4.888053,2.94874,1490135944356
91,-1.0575665,-0.12866627,-0.053566664,40.763718,-73.922134,-0.010976672,-0.058139917,0.051025104,-4.8974123,2.965428,1490135944422
92,-1.0391998,-0.025366517,-0.024366882,40.763718,-73.922134,-0.06689803,0.05329828,0.014288229,-4.9067717,2.982116,1490135944489
93,-0.8752,0.0827,-0.0312,40.76372,-73.922134,-0.047135,0.023995,-0.017235,-4.9161315,2.9988043,1490135944556
94,-0.9831672,-0.035199925,-0.09049994,40.763725,-73.922134,-0.029410144,0.049034856,-0.01776665,-4.9254913,3.0154924,1490135944622
95,-0.9991664,-0.06370026,-0.08533313,40.763725,-73.922134,0.013403294,0.0038899488,-0.018156623,-4.9348507,3.0321805,1490135944689
96,-1.0215,-0.0356,-0.0481,40.76373,-73.922134,-0.005435,-0.06118,0.009735,-4.94421,3.0488687,1490135944756
97,-1.0206,-0.11416693,-0.044166565,40.76373,-73.922134,-0.017826611,-0.04165831,-0.0045865965,-4.95357,3.065557,1490135944822
98,-1.0186669,0.0012999878,-0.08819995,40.763733,-73.922134,-0.016363332,-0.053616393,0.018841656,-4.9629297,3.0822449,1490135944889
99,-1.0532,-0.1065,-0.0043,40.763737,-73.922134,0.008295,-0.0185,-0.000905,-4.972289,3.098933,1490135944956
100,-1.0013999,-0.05536637,-0.07823353,40.763737,-73.9222,0.0018218445,-0.03582841,0.0034599854,-4.9938207,3.1212916,1490135945022
101,-0.9611667,-0.045033388,-0.051466674,40.763737,-73.9222,-0.0054298607,-0.024765052,-0.007683362,-5.0389805,3.1546583,1490135945089
102,-0.9684,-0.0411,-0.0759,40.76374,-73.9222,-0.012345,-0.06,0.006165,-5.084141,3.1880245,1490135945156
103,-1.0034,-0.055866674,-0.0691332,40.76374,-73.9222,0.0013467041,-0.027098347,0.0025117493,-5.1293006,3.221391,1490135945222
104,-0.9665671,-0.052700136,-0.043400023,40.763744,-73.9222,0.0031834594,-0.05417857,0.015494938,-5.1744604,3.2547572,1490135945289
105,-0.9958,-0.0766,-0.0618,40.763744,-73.9222,-0.007415,-0.078535,0.019545,-5.21962,3.2881236,1490135945356
106,-1.0037335,-0.025999878,-0.063333005,40.76375,-73.9222,-0.006566724,0.032076623,-0.0041566286,-5.2647805,3.3214898,1490135945422
107,-0.9952002,-0.055633362,-0.079266846,40.76375,-73.9222,-0.006151537,-0.0171101,0.01670666,-5.30994,3.354856,1490135945489
108,-1.0589,-0.0614,-0.0613,40.76375,-73.9222,0.021095,-0.020545,0.01817,-5.3550997,3.3882227,1490135945556
109,-1.0145333,-0.044566784,-0.06943334,40.763752,-73.9222,0.0060717347,-0.01786687,-0.0011199462,-5.40026,3.421589,1490135945622
110,-1.0424331,-0.021366639,-0.06903351,40.763752,-73.9222,-0.004124994,-0.06231942,-0.0034333495,-5.4454193,3.4549553,1490135945689
111,-0.981,-0.0056,-0.0696,40.763756,-73.9222,-0.019685,0.03162,-0.015825,-5.4905796,3.4883215,1490135945756
112,-0.9959004,-0.05820005,-0.086099595,40.763756,-73.9222,0.0045832642,-0.008336853,-0.0050933594,-5.53574,3.521688,1490135945822
113,-1.013933,-0.07389996,-0.054900452,40.76376,-73.9222,-0.02222824,0.05636171,-0.0027465967,-5.5808992,3.5550542,1490135945889
114,-0.9792,-0.0542,-0.0753,40.76376,-73.9222,0.03668,0.01836,-0.00391,-5.6260586,3.5884206,1490135945956
115,-1.0127,-0.03279995,-0.09273311,40.763763,-73.92227,-0.008545001,0.034894817,0.0069683776,-5.659113,3.612516,1490135946022
116,-0.97611105,-0.032587122,-0.08749226,40.763763,-73.92227,-0.0032444661,0.007666671,-0.0027888068,-5.668666,3.618614,1490135946089
117,-1.00835,-0.04225,-0.0834,40.763767,-73.92227,0.00286,0.02503,0.01578,-5.6782184,3.624712,1490135946156
118,-0.9829834,-0.052399952,-0.10765013,40.763767,-73.92227,0.015120005,-0.025689991,0.013526641,-5.6877713,3.63081,1490135946222
119,-1.0048997,-0.05834989,-0.13801688,40.76377,-73.92227,-0.007129962,0.051463116,-0.00484328,-5.6973243,3.6369083,1490135946289
120,-1.0091,-0.0208,-0.077,40.763775,-73.92227,-0.01361,0.00796,0.00138,-5.706877,3.6430063,1490135946356
121,-1.0343169,-0.040766675,-0.07528341,40.763775,-73.92227,0.003336869,-0.05954366,0.009690053,-5.71643,3.6491046,1490135946422
122,-1.0444661,-0.04315023,-0.09328358,40.76378,-73.92227,-0.0142967105,-0.0028764587,0.0077000246,-5.7259827,3.6552024,1490135946489
123,-0.96755,0.01135,-0.09635,40.76378,-73.92227,-0.01117,0.0089,-0.00035,-5.7355356,3.6613007,1490135946556
124,-0.9882665,-0.035966527,-0.115583435,40.763783,-73.92227,-0.0029499207,-0.07810324,0.026369913,-5.7450886,3.667399,1490135946622
125,-1.0633663,-0.037983608,-0.08014974,40.763783,-73.92227,-0.0029266723,-0.08671623,0.008403192,-5.7546415,3.6734967,1490135946689
126,-1.07285,0.01135,-0.07325,40.763786,-73.92227,-0.02102,0.00921,-0.04607,-5.7641945,3.679595,1490135946756
127,-1.0003166,-0.07426655,-0.09001686,40.76379,-73.92227,0.006976622,-0.06509032,-0.0019933155,-5.7737474,3.685693,1490135946822
128,-1.0487832,-0.09176682,-0.06241693,40.76379,-73.92227,0.002606653,-0.087216035,0.030303217,-5.7833,3.6917913,1490135946889
129,-0.97185,-0.01595,-0.04885,40.763794,-73.92227,-0.02699,0.02161,0.00385,-5.792853,3.6978893,1490135946956
130,-0.9773164,-0.0025827026,-0.08889983,40.763794,-73.92234,-0.031046657,-0.0045202733,-0.0018200414,-5.7979655,3.7037532,1490135947022
131,-0.9993007,-0.058449965,-0.108800344,40.763798,-73.92234,-0.015443036,-0.06448683,0.0125198485,-5.7944593,3.7091625,1490135947089
132,-1.03115,-0.0034,-0.08765,40.7638,-73.92234,0.01252,0.01661,-0.05742,-5.790952,3.7145717,1490135947156
133,-0.96015,-0.04529978,-0.10794991,40.7638,-73.92234,-0.002733423,0.008733338,-0.03772675,-5.787445,3.7199812,1490135947222
134,-0.9917668,-0.09756667,-0.11731637,40.763805,-73.92234,0.01046676,-0.035640027,-0.0031534669,-5.7839384,3.7253904,1490135947289
135,-0.96895,-0.06405,-0.104,40.763805,-73.92234,-0.03003,0.02568,0.00814,-5.7804317,3.7307997,1490135947356
136,-0.9734503,-0.008066455,-0.09508331,40.76381,-73.92234,-0.022503324,0.04260968,0.0031765734,-5.776925,3.7362092,1490135947422
137,-0.94996697,-0.010250305,-0.07753291,40.763813,-73.92234,0.018476691,0.0031995361,0.002130072,-5.773418,3.7416182,1490135947489
138,-1.18455,-0.10735,-0.1241,40.763813,-73.92234,0.07999,-0.18327,-0.07772,-5.769912,3.7470274,1490135947556
139,-0.97601634,0.03194918,-0.102333255,40.763817,-73.92234,0.044450007,-0.09754645,-0.026303422,-5.766405,3.752437,1490135947622
140,-0.8758341,-0.1546166,-0.077799365,40.76382,-73.92234,0.011323078,-0.041949823,0.019609734,-5.762898,3.757846,1490135947689
141,-1.04385,-0.06845,-0.1499,40.76382,-73.92234,-0.03618,-0.07304,0.02038,-5.7593913,3.7632551,1490135947756
142,-1.1540506,-0.13448302,-0.3000342,40.763824,-73.92234,0.04213721,0.021506429,0.015293511,-5.7558846,3.7686648,1490135947822
143,-1.2639645,-0.2177333,-0.27063274,40.763824,-73.92234,0.04482059,-0.032246105,0.099663,-5.7523775,3.7740738,1490135947889
144,-1.0847,-0.00735,0.02355,40.76383,-73.92234,0.08666,-0.37854,0.03061,-5.748871,3.779483,1490135947956
145,-0.84633523,-0.007799658,-0.024833374,40.763832,-73.92241,0.042397056,-0.13935009,0.03555327,-5.7480707,3.7840505,1490135948022
146,-0.95743257,-0.10921581,-0.046400536,40.763832,-73.92241,0.015239722,-0.107995465,0.024526587,-5.7525253,3.7869833,1490135948089
147,-1.13885,0.02915,0.0377,40.763836,-73.92241,-0.03408,-0.11816,-0.03696,-5.75698,3.7899156,1490135948156
148,-1.0622673,-0.09003347,0.022517225,40.76384,-73.92241,-0.06069547,-0.019674214,-0.0040103626,-5.761435,3.792848,1490135948222
149,-1.2521485,-0.18573403,-0.004550525,40.76384,-73.92241,-0.05771372,0.023713,0.02616665,-5.7658896,3.7957811,1490135948289
150,-1.03785,0.044,-0.1135,40.763844,-73.92241,0.02649,-0.26594,0.02427,-5.7703443,3.7987137,1490135948356
151,-0.87385,-0.0039003175,-0.065316886,40.763844,-73.92241,0.026470207,-0.06766938,0.028553294,-5.7747993,3.8016462,1490135948422
152,-0.87254953,-0.008316858,-0.042566676,40.763847,-73.92241,-0.004903436,0.073972985,0.009316559,-5.7792535,3.8045785,1490135948489
153,-0.89795,-0.012,-0.0835,40.76385,-73.92241,-0.00919,-0.04579,0.01683,-5.7837086,3.8075113,1490135948556
154,-1.0143335,-0.029966772,-0.13553335,40.76385,-73.92241,0.0047666994,-0.0031968958,-0.0030199073,-5.788163,3.8104439,1490135948622
155,-1.1521162,0.0137333,-0.024383899,40.763855,-73.92241,0.018179957,0.00017672729,-0.025049957,-5.792618,3.8133764,1490135948689
156,-1.075,-0.04095,-0.01855,40.76386,-73.92241,-0.00481,0.05647,-0.01548,-5.797072,3.816309,1490135948756
157,-1.0073992,-0.10330003,-0.11120034,40.76386,-73.92241,0.006676671,-0.030376341,0.0036733837,-5.801527,3.8192418,1490135948822
158,-0.9215999,0.0069831177,-0.20135014,40.763863,-73.92241,-0.017070087,-0.07879665,0.013026648,-5.8059816,3.8221743,1490135948889
159,-0.93315,0.0132,-0.1015,40.763866,-73.92241,-0.00434,-0.06217,0.00299,-5.8104362,3.8251066,1490135948956
160,-0.9692167,0.04353335,-0.038066942,40.763866,-73.922485,-0.003059917,-0.048319943,0.00017997071,-5.811257,3.8325455,1490135949022
161,-1.0545835,-0.037783217,-0.12674993,40.76387,-73.922485,0.020726647,-0.08091971,-0.054883465,-5.8050227,3.848732,1490135949089
162,-0.8622,0.07805,-0.12045,40.76387,-73.922485,-0.06955,0.0119,0.06499,-5.798788,3.864918,1490135949156
163,-0.95958346,-0.04103274,-0.07156682,40.763874,-73.922485,0.008709862,0.058830343,0.0064466456,-5.7925544,3.8811045,1490135949222
164,-0.89310104,-0.021467334,-0.12658331,40.763878,-73.922485,-0.030282903,0.036485754,0.037189923,-5.78632,3.8972905,1490135949289
165,-0.9368,-0.0982,-0.0859,40.763878,-73.922485,-0.00768,0.0407,0.01984,-5.780086,3.9134767,1490135949356
166,-0.9444505,0.028800147,-0.12899975,40.76388,-73.922485,-0.01017683,0.02282697,0.008343261,-5.773852,3.929663,1490135949422
167,-1.0282332,-0.04923342,-0.07696599,40.763885,-73.922485,0.009129608,-0.013350116,-0.04251328,-5.767617,3.945849,1490135949489
168,-1.02,-0.017,-0.046,40.763885,-73.922485,0.006573684,-0.18061578,-0.025568422,-5.761383,3.9620352,1490135949556
169,-1.062666,-0.0116668455,-0.040000148,40.76389,-73.922485,-0.03773804,-0.066698484,-0.049224846,-5.7551494,3.9782214,1490135949622
170,-0.9950002,-0.01966648,-0.119000025,40.76389,-73.922485,-0.035191704,-0.009502717,-0.039933275,-5.7489147,3.9944077,1490135949689
171,-1.03,-0.084,-0.101,40.763893,-73.922485,-0.028425,0.00223,-0.01971,-5.7426805,4.0105934,1490135949756
172,-1.0106661,-0.03299973,-0.09566709,40.763897,-73.922485,-0.034858294,-0.0023049354,0.007970022,-5.736447,4.02678,1490135949822
173,-1.0243336,-0.02999995,-0.11600005,40.763897,-73.922485,-0.016028382,-0.03256337,-0.008488256,-5.730212,4.0429664,1490135949889
174,-0.998,0.02,-0.077,40.7639,-73.922485,-0.00602,-0.04133,0.011835,-5.723978,4.059152,1490135949956
175,-0.9746665,-0.01833341,-0.078999795,40.763905,-73.922554,-0.0061217444,-0.032173198,-0.018378304,-5.7078595,4.0612936,1490135950022
176,-1.0069999,0.051332936,-0.13966615,40.763905,-73.922554,-0.0070968186,-0.009325177,-0.01997333,-5.6725516,4.036171,1490135950089
177,-1.009,-0.3,-0.02,40.76391,-73.922554,0.02499,-0.00971,-0.015355,-5.6372437,4.0110483,1490135950156
178,-1.0049975,0.14899811,-0.07600053,40.763912,-73.922554,-0.034962203,-0.02742905,-0.02872536,-5.601936,3.9859262,1490135950222
179,-1.1190012,-0.017333142,-0.15533333,40.763912,-73.922554,-0.10117967,-0.00096185424,0.02158319,-5.566628,3.9608037,1490135950289
180,-1.054,0.02,-0.123,40.763916,-73.922554,-0.019085,-0.05716,-0.00652,-5.53132,3.9356813,1490135950356
181,-1.033,-0.06533366,-0.21366625,40.763916,-73.922554,-0.0033334962,-0.055345077,-0.014186538,-5.4960127,3.9105592,1490135950422
182,-1.0856665,0.046666626,-0.09666697,40.76392,-73.922554,0.028303426,-0.14389475,0.0068766577,-5.4607043,3.885436,1490135950489
183,-0.867,-0.267,-0.128,40.763924,-73.922554,-0.10396,0.00366,0.132965,-5.425397,3.860314,1490135950556
184,-0.9433332,-0.20833193,-0.19466606,40.763924,-73.922554,0.10706624,-0.34983727,0.07516189,-5.390089,3.8351915,1490135950622
185,-0.91599995,-0.06799994,-0.30900073,40.763927,-73.922554,-0.03651818,-0.10323553,0.06691984,-5.354781,3.810069,1490135950689
186,-1.053,0.078,-0.333,40.763927,-73.922554,0.02501,-0.17266,0.04249,-5.3194733,3.7849467,1490135950756
187,-0.8946669,0.04099961,-0.40166703,40.76393,-73.922554,0.0023164917,0.034681283,0.011978329,-5.2841654,3.7598243,1490135950822
188,-0.8813336,-0.015000073,-0.34866688,40.76393,-73.922554,0.0031532666,0.09814272,-0.0044499636,-5.2488575,3.7347016,1490135950889
189,-0.969,-0.088,-0.349,40.763935,-73.922554,0.01751,0.057275,-0.021575,-5.2135496,3.7095792,1490135950956
190,-1.0310003,-0.09266664,-0.26599973,40.763935,-73.92262,-0.0051268996,-0.014785463,0.030466797,-5.1902466,3.6929984,1490135951022
191,-1.0116663,-0.08466664,-0.17100023,40.76394,-73.92262,-0.027469954,0.005768412,0.06078676,-5.1902466,3.6929986,1490135951089
192,-0.976,0.013,-0.149,40.76394,-73.92262,-0.01423,0.045885,0.05052,-5.1902466,3.6929984,1490135951156
193,-0.9470001,0.056666516,-0.12999994,40.763943,-73.92262,-0.0053850478,-0.0012414124,0.032841414,-5.1902466,3.6929984,1490135951222
194,-0.9473336,0.018333228,-0.13833328,40.763943,-73.92262,0.008516735,-0.030568607,0.032033302,-5.1902466,3.6929984,1490135951289
195,-0.919,0.057,-0.141,40.763947,-73.92262,-0.003885,-0.04257,0.03342,-5.1902466,3.6929984,1490135951356
196,-1.0086665,-0.0009999634,-0.114666685,40.763947,-73.92262,-0.0077016125,-0.040918518,0.006345101,-5.1902466,3.6929984,1490135951422
197,-1.0133331,0.014666577,-0.13966663,40.763947,-73.92262,-0.035380106,-0.01023313,0.0029266211,-5.1902466,3.6929984,1490135951489
198,-0.995,0.007,-0.13,40.76395,-73.92262,-0.055305,0.021655,0.00021,-5.1902466,3.6929984,1490135951556
199,-0.8433337,-0.18733394,-0.056666527,40.76395,-73.92262,-0.031410065,0.09449169,0.06283005,-5.1902466,3.6929984,1490135951622
200,-1.0819995,0.3536655,-0.1703337,40.763954,-73.92262,-0.0074230735,0.14510354,0.03643205,-5.1902466,3.6929984,1490135951689
201,-1.144,0.058,-0.056,40.763954,-73.92262,0.00502,-0.19086,0.03161,-5.1902466,3.6929984,1490135951756
202,-0.9996666,0.14833356,-0.14966674,40.763954,-73.92262,-0.0663516,-0.011119497,-0.010775006,-5.190247,3.6929986,1490135951822
203,-1.0113337,0.09166655,-0.14099984,40.763958,-73.92262,-0.059870053,-0.03182185,-0.026505064,-5.1902466,3.6929984,1490135951889
204,-1.013,0.084,-0.113,40.763958,-73.92262,-0.099365,-0.004615,-0.04246,-5.190246,3.6929984,1490135951956
205,-0.9726667,0.029333325,-0.12400009,40.76396,-73.92266,-0.083554946,-0.052968115,-0.01612167,-5.1902466,3.6929984,1490135952022
206,-0.9046668,-0.07633308,-0.1506664,40.76396,-73.92266,-0.08913328,-0.03971686,0.005684928,-5.1902466,3.6929986,1490135952089
207,-1.096,0.219,0.002,40.76396,-73.92266,-0.150235,-0.03742,-0.0111,-5.1902466,3.6929984,1490135952156
208,-0.9973329,0.061333496,0.049666088,40.76396,-73.92266,-0.06411996,-0.005506792,-0.03320667,-5.1902466,3.6929984,1490135952222
209,-0.95466715,0.085666895,0.028,40.76396,-73.92266,-0.09397152,-0.020062001,-0.028726645,-5.1902466,3.6929984,1490135952289
210,-0.986,-0.025,0.036,40.76396,-73.92266,-0.109105,0.00882,0.003115,-5.1902466,3.6929984,1490135952356
211,-1.0146664,0.0036666626,0.055332996,40.76396,-73.92266,-0.08427166,0.020926606,-0.020433277,-5.1902466,3.6929984,1490135952422
212,-0.99366677,0.022333326,0.0356666,40.76396,-73.92266,-0.09280331,-0.004620039,-0.0075433324,-5.1902466,3.6929984,1490135952489
213,-1.038,0.049,0.086,40.76396,-73.92266,-0.088105,-0.02529,-0.017195,-5.1902466,3.6929984,1490135952556
214,-1.0263333,0.038333107,0.0553333,40.76396,-73.92266,-0.07174163,-0.027266797,-0.054863326,-5.1902466,3.6929984,1490135952622
215,-1.039333,0.02700005,0.10833319,40.76396,-73.92266,-0.04685843,-0.008876267,-0.094486594,-5.1902466,3.6929984,1490135952689
216,-0.997,-0.112,0.074,40.76396,-73.92266,-0.04117,-0.02364,-0.072155,-5.1902466,3.6929984,1490135952756
217,-1.0223331,-0.058000132,0.120666385,40.76396,-73.92266,-0.03427669,-0.07356641,-0.021871708,-5.190247,3.6929986,1490135952822
218,-0.990667,-0.06166687,0.1346667,40.76396,-73.92266,-0.0461334,-0.053508367,-0.008828334,-5.1902466,3.6929984,1490135952889
219,-0.982,-0.046,0.158,40.76396,-73.92266,-0.051045,-0.041465,0.00453,-5.190246,3.6929984,1490135952956
220,-1.0170952,-0.057317466,0.1604445,40.763966,-73.92267,-0.008299961,-0.0014663195,-0.011466611,-5.204963,3.688708,1490135953022
221,-1.0365336,-0.009500122,0.14016639,40.76397,-73.92267,0.013099835,-0.06896657,-0.008333314,-5.2482486,3.6760898,1490135953089
222,-1.03485,-0.0764,0.14865,40.763973,-73.92267,0.0077,0.0094,-0.0159,-5.291534,3.6634712,1490135953156
223,-1.0126,-0.038149986,0.15640005,40.763977,-73.92267,0.0063669104,-0.018233646,-0.020466745,-5.334819,3.6508527,1490135953222
224,-0.9861498,-0.06554996,0.12646641,40.763985,-73.92267,0.0024000292,0.04726661,-0.054333314,-5.378104,3.6382341,1490135953289
225,-0.9891,-0.11875,0.15375,40.76399,-73.92267,0.0539,-0.0098,-0.0345,-5.4213896,3.6256156,1490135953356
226,-0.9801502,-0.104216784,0.10338341,40.763992,-73.92267,0.032400038,0.042333372,-0.041833453,-5.4646745,3.6129973,1490135953422
227,-0.9994835,-0.16558343,0.05386709,40.764,-73.92267,0.020500248,0.029733162,-0.011966771,-5.5079594,3.6003788,1490135953489
228,-0.9992,-0.1413,0.03955,40.764004,-73.92267,0.0407,0.0105,-0.0059,-5.5512447,3.5877604,1490135953556
229,-1.0127666,-0.098416686,0.07453316,40.764008,-73.92267,0.064899996,-0.03766638,-0.03886671,-5.59453,3.575142,1490135953622
230,-0.94970024,-0.09250012,-0.00029978028,40.76401,-73.92267,0.038233455,0.037032943,-0.031733356,-5.6378145,3.5625234,1490135953689
231,-1.0393,-0.25015,0.0441,40.76402,-73.92267,0.1201,-0.1124,-0.046,-5.6811,3.5499048,1490135953756
232,-1.103334,-0.20666723,0.016266212,40.764023,-73.92267,0.077733524,-0.042933878,-0.015866557,-5.7243857,3.5372865,1490135953822
233,-1.047766,-0.04606743,0.015749818,40.764027,-73.92267,0.060599454,-0.038864892,0.06013336,-5.76767,3.524668,1490135953889
234,-1.1042,-0.21265,0.0879,40.76403,-73.92267,0.0691,-0.1611,-0.0025,-5.810955,3.5120494,1490135953956
235,-1.0318495,-0.11940029,-0.03341669,40.764034,-73.92283,0.0770003,-0.10446636,0.02389999,-5.875676,3.5254126,1490135954022
236,-1.0971336,-0.1547503,-0.011982898,40.764038,-73.92283,0.07399994,-0.04036651,0.043533146,-5.9820046,3.58921,1490135954089
237,-0.98475,-0.26175,0.0351,40.76404,-73.92283,0.0902,0.0341,0.0426,-6.0883336,3.6530075,1490135954156
238,-0.9361671,-0.072533645,0.012066552,40.764046,-73.92283,0.06966659,0.020566748,0.03066664,-6.194663,3.7168055,1490135954222
239,-0.8875668,-0.09568385,0.0056662597,40.764046,-73.92283,0.056400094,0.07223308,0.04523349,-6.300992,3.780603,1490135954289
240,-0.97845,-0.08555,-0.01935,40.76405,-73.92283,0.0469,0.1173,0.0235,-6.407321,3.8444004,1490135954356
241,-0.9885001,-0.18851651,-0.035499632,40.764053,-73.92283,0.07079992,0.06253296,0.034766708,-6.5136504,3.9081979,1490135954422
242,-1.0479832,-0.13518324,-0.056833375,40.764053,-73.92283,0.059133396,0.07439994,0.05236674,-6.619979,3.9719954,1490135954489
243,-0.98815,-0.0723,-0.05365,40.764057,-73.92283,0.0484,0.0961,0.0557,-6.7263083,4.035793,1490135954556
244,-0.9941502,-0.09166675,-0.05585001,40.76406,-73.92283,0.09903312,-0.026266428,0.039866664,-6.832638,4.099591,1490135954622
245,-1.0132831,-0.13084975,-0.023583435,40.764065,-73.92283,0.062966764,-0.08030027,0.08173327,-6.938966,4.1633883,1490135954689
246,-0.9662,0.00695,0.0018,40.764065,-73.92283,0.0424,-0.0554,0.0136,-7.0452952,4.2271852,1490135954756
247,-1.02385,-0.083849765,-0.009199902,40.76407,-73.92283,0.029466731,0.01243332,-0.043466613,-7.1516247,4.2909837,1490135954822
248,-1.0679997,-0.10973345,-0.02871659,40.764072,-73.92283,0.042000096,0.014100029,0.0025998706,-7.257953,4.3547807,1490135954889
249,-0.90935,-0.12705,-0.119,40.764076,-73.92283,0.0456,0.0032,0.0219,-7.364282,4.418578,1490135954956
250,-0.93826693,-0.07234989,-0.09188329,40.76408,-73.92292,0.032833353,0.05909993,-0.021566696,-7.460699,4.4764285,1490135955022
251,-1.0002167,-0.13346665,-0.08074982,40.76408,-73.92292,0.03866688,-0.0071333167,0.003366587,-7.5378733,4.5227327,1490135955089
252,-0.95895,-0.10585,-0.0972,40.764084,-73.92292,0.0384,-0.0053,0.0026,-7.6150475,4.569038,1490135955156
253,-0.98780036,-0.054066554,-0.043933447,40.764088,-73.92292,0.03976677,0.026099736,-0.013133405,-7.692222,4.6153426,1490135955222
254,-0.9780667,-0.10139995,-0.113316394,40.76409,-73.92292,0.058266792,-0.0065002088,0.0039666174,-7.769397,4.6616473,1490135955289
255,-1.00785,-0.0956,-0.0796,40.764095,-73.92292,0.0412,-0.0169,0.0273,-7.846571,4.7079515,1490135955356
256,-0.98133326,-0.053316616,-0.08395009,40.764095,-73.92292,0.025066754,-0.018033411,0.0110666165,-7.9237456,4.7542567,1490135955422
257,-1.0089496,-0.05524994,-0.10298314,40.7641,-73.92292,0.040366597,0.012633424,-0.009833382,-8.000919,4.800561,1490135955489
258,-0.9451,-0.0528,-0.1304,40.764103,-73.92292,0.0237,-0.0107,-0.0146,-8.0780945,4.846866,1490135955556
259,-1.0003831,-0.06823318,-0.10263323,40.764107,-73.92292,0.032766733,-0.03300021,0.013366629,-8.155269,4.893171,1490135955622
260,-0.99596655,-0.08781676,-0.08408356,40.76411,-73.92292,0.031033283,0.005266809,-0.006366725,-8.232443,4.9394755,1490135955689
261,-0.91595,-0.0279,-0.1076,40.764114,-73.92292,0.0054,0.017,-0.0042,-8.309617,4.98578,1490135955756
262,-0.9732498,-0.074733056,-0.06766675,40.76412,-73.92292,0.04806658,-0.04159987,0.012566704,-8.386791,5.032085,1490135955822
263,-1.0293,-0.080600046,-0.08071683,40.76412,-73.92292,0.008166612,0.009300255,0.0032332276,-8.463965,5.0783896,1490135955889
264,-0.9676,-0.0595,-0.14625,40.764122,-73.92292,0.0023,0.0372,-0.0055,-8.54114,5.124694,1490135955956
265,-0.98089993,-0.06251652,-0.16153315,40.764126,-73.92303,0.019700017,0.0013333252,-0.008299987,-8.574388,5.144643,1490135956022
266,-1.0145334,-0.10946665,-0.16318324,40.76413,-73.92303,0.020833353,0.005199961,-0.015066735,-8.522367,5.1134305,1490135956089
267,-1.0275,-0.0741,-0.14145,40.764133,-73.92303,0.0401,-0.1076,0.0171,-8.4703455,5.082217,1490135956156
268,-1.0507996,-0.0492667,-0.09835014,40.764133,-73.92303,0.025633467,-0.108766705,0.0034000843,-8.418324,5.0510044,1490135956222
269,-1.0216333,-0.05175006,-0.09266651,40.764137,-73.92303,-0.0041332934,-0.019933134,-0.009900044,-8.366303,5.0197916,1490135956289
270,-1.040381,-0.048428573,-0.10414286,40.76414,-73.92303,0.0407,-0.0535,-0.0195,-8.314281,4.988579,1490135956356
271,-1.035933,-0.066666625,-0.1592331,40.76414,-73.92303,0.017939981,-0.035118423,-0.0025165405,-8.26226,4.957366,1490135956422
272,-0.98823327,-0.08530001,-0.20933338,40.764145,-73.92303,0.0034482775,0.033791766,-0.011620009,-8.210239,4.926153,1490135956489
273,-0.9823,-0.0869,-0.2581,40.76415,-73.92303,-0.00576,-0.01395,0.04244,-8.158218,4.8949404,1490135956556
274,-0.9586664,-0.017599853,-0.2409336,40.76415,-73.92303,0.02332158,-0.029891364,0.025911646,-8.106196,4.8637276,1490135956622
275,-0.99450016,-0.05233325,-0.22053306,40.764153,-73.92303,0.029701442,-0.042691644,0.012399975,-8.054175,4.832515,1490135956689
276,-0.9633,-0.053,-0.2578,40.764156,-73.92303,0.00573,0.05602,-0.00694,-8.002153,4.801302,1490135956756
277,-0.97773314,-0.04466675,-0.2632337,40.764156,-73.92303,0.018476585,-0.008641303,0.017491682,-7.950133,4.770089,1490135956822
278,-0.98146695,-0.013800073,-0.27430013,40.76416,-73.92303,0.007886709,-0.066456854,0.018416712,-7.898112,4.738876,1490135956889
279,-1.0131,-0.0714,-0.3132,40.764164,-73.92303,-8.5e-05,0.04142,0.00112,-7.84609,4.707663,1490135956956
280,-0.95916706,-0.054766662,-0.2897333,40.764164,-73.92311,-0.0032749695,0.03586998,0.010431637,-7.7965956,4.6779666,1490135957022
281,-0.9451333,-0.057566784,-0.20556654,40.764168,-73.92311,0.026270047,-0.051881824,0.032643393,-7.7520065,4.6512127,1490135957089
282,-1.0613,-0.0462,-0.1383,40.76417,-73.92311,0.0161,-0.100195,0.05273,-7.7074165,4.624459,1490135957156
283,-1.0432332,0.028366515,-0.15700012,40.764175,-73.92311,0.0041436255,-0.06695148,0.0009999512,-7.6628265,4.597705,1490135957222
284,-1.0020334,-0.019199926,-0.16946682,40.764175,-73.92311,0.014193354,-0.015245126,-0.030369973,-7.6182375,4.5709515,1490135957289
285,-1.0377,-0.0323,-0.1468,40.76418,-73.92311,0.01849,-0.09011,-0.00992,-7.5736475,4.5441976,1490135957356
286,-0.95213354,-0.040833436,-0.17559986,40.764183,-73.92311,-0.002651676,0.00586484,-0.0009533154,-7.5290585,4.5174437,1490135957422
287,-0.9331997,-0.051633388,-0.12923329,40.764183,-73.92311,0.008098241,-0.003948229,0.023376765,-7.4844685,4.4906898,1490135957489
288,-0.929,-0.0046,-0.1248,40.764187,-73.92311,0.015125,0.009485,0.034135,-7.439879,4.463936,1490135957556
289,-0.93420017,0.0075333253,-0.12510003,40.76419,-73.92311,-0.009995033,0.045170173,0.013658258,-7.3952894,4.4371824,1490135957622
290,-0.9579666,0.01103324,-0.1652334,40.76419,-73.92311,0.00632839,0.022323186,0.0044099926,-7.3507,4.4104285,1490135957689
291,-0.9535,0.017,-0.1406,40.764194,-73.92311,-0.00877,0.019935,-0.00268,-7.3061104,4.3836746,1490135957756
292,-0.945067,0.00739978,-0.16963336,40.7642,-73.92311,-0.029418303,0.018233398,-0.028508367,-7.2615204,4.3569207,1490135957822
293,-1.0174333,-0.019233288,-0.20473348,40.7642,-73.92311,-0.026368214,-0.061334644,-0.0044550695,-7.216931,4.330167,1490135957889
294,-0.9638,0.0075,-0.1904,40.764202,-73.92311,-0.054585,0.022335,-0.020755,-7.1723413,4.303413,1490135957956
295,-0.9277003,0.0007666626,-0.17203338,40.764206,-73.923195,-0.034768313,-0.006376438,-0.01984343,-7.0733294,4.2440057,1490135958022
296,-0.98889965,-0.011899915,-0.2990331,40.764206,-73.923195,-0.020128269,0.023051845,-0.023221672,-6.868675,4.121213,1490135958089
297,-0.8934,0.0258,-0.396,40.76421,-73.923195,-0.02803,0.11377,-0.045095,-6.6640196,3.9984198,1490135958156
298,-0.898367,-0.02823346,-0.49766675,40.76421,-73.923195,-0.026011769,0.09859171,-0.014896794,-6.459365,3.8756266,1490135958222
299,-0.93560004,-0.014266772,-0.59053344,40.764214,-73.923195,0.00449829,0.023651771,0.0022700464,-6.2547107,3.7528336,1490135958289
300,-1.059,-0.0102,-0.6155,40.764214,-73.923195,-0.017565,-0.031925,-0.0168,-6.0500555,3.6300402,1490135958356
301,-1.0146667,-0.011666748,-0.6984664,40.764217,-73.923195,-0.044874944,0.036497846,-0.01264162,-5.8454003,3.507247,1490135958422
302,-1.0370332,-0.017166687,-0.69639987,40.764217,-73.923195,-0.013121769,-0.06766113,0.0012266064,-5.6407456,3.384454,1490135958489
303,-1.0188,-0.033,-0.6566,40.764217,-73.923195,0.005925,-0.12392,-0.01385,-5.4360905,3.2616608,1490135958556
304,-0.99206614,-0.001300354,-0.6380999,40.76422,-73.923195,-0.023204967,-0.09187685,-0.010851579,-5.231436,3.1388676,1490135958622
305,-0.97876686,-0.023766711,-0.6184336,40.76422,-73.923195,-0.038561642,-0.035376083,-0.0014167603,-5.026781,3.0160747,1490135958689
306,-0.9927,-0.0408,-0.5701,40.764225,-73.923195,-0.01242,-0.060385,0.00231,-4.822126,2.8932815,1490135958756
307,-1.0160997,-0.013,-0.58236676,40.764225,-73.923195,-0.021445045,-0.041225106,0.011575092,-4.6174707,2.770488,1490135958822
308,-1.0090998,-0.034666628,-0.61673373,40.764225,-73.923195,-0.015783362,-0.0180527,0.008779966,-4.4128165,2.647695,1490135958889
309,-0.9438,-0.0124,-0.6221,40.76423,-73.923195,-0.010715,0.008845,-0.00057,-4.2081614,2.5249019,1490135958956
310,-0.9304,0.00046655274,-0.5974664,40.76423,-73.92325,-0.004430095,-0.0068451427,-0.005758356,-4.00545,2.4032748,1490135959022
311,-0.9515333,-0.0141998045,-0.5926003,40.76423,-73.92325,-0.0028715858,0.0026814807,-0.0024132666,-3.806512,2.283912,1490135959089
312,-0.9015,-0.0596,-0.5446,40.764233,-73.92325,-0.02841,0.083725,0.006745,-3.6075735,2.1645484,1490135959156
313,-0.9718004,-0.07673303,-0.50219995,40.764233,-73.92325,0.01326851,0.016199145,0.01304666,-3.4086351,2.0451853,1490135959222
314,-0.9879328,-0.026033362,-0.45673347,40.764233,-73.92325,-0.0039917175,-0.03511278,0.0036766676,-3.2096977,1.9258224,1490135959289
315,-1.0053,-0.0252,-0.4182,40.764236,-73.92325,-0.00535,-0.02938,-0.00066,-3.0107589,1.806459,1490135959356
316,-0.9957665,-0.0045333253,-0.40813342,40.764236,-73.92325,-0.007861707,-0.0107637625,-0.009353267,-2.8118205,1.6870956,1490135959422
317,-0.9907,-0.015333252,-0.4168668,40.764236,-73.92325,0.0032182995,-0.031426094,-0.011899951,-2.6128826,1.5677327,1490135959489
318,-1.014,-0.0541,-0.4238,40.764236,-73.92325,-0.013795,-0.02017,-0.021805,-2.4139442,1.4483694,1490135959556
319,-0.9972667,-0.05469989,-0.41573328,40.764236,-73.92325,-0.012684928,0.012826255,-0.014839931,-2.2150056,1.3290061,1490135959622
320,-0.9631051,-0.034403615,-0.398,40.76424,-73.92325,-0.014701588,0.01162365,-0.018574957,-2.016068,1.2096431,1490135959689
321,-0.94385713,-0.049857143,-0.39557144,40.76424,-73.92325,0.016595239,0.011457142,-0.0065761907,-1.8171295,1.0902798,1490135959756
322,-0.96616685,-0.03221676,-0.40249988,40.76424,-73.92325,-0.00435661,0.008493164,0.011039954,-1.618191,0.9709165,1490135959822
323,-0.97798324,-0.031700075,-0.39806664,40.76424,-73.92325,-0.009740022,0.009410009,-0.0003333252,-1.4192532,0.85155356,1490135959889
324,-0.96455,-0.0165,-0.4055,40.76424,-73.92325,0.0075,-0.01085,-0.00687,-1.2203146,0.73219025,1490135959956
325,-0.9791332,-0.05986655,-0.3748501,40.76424,-73.92328,0.0045499695,-0.012073376,0.0015933594,-1.0734662,0.644081,1490135960022
326,-0.93990004,-0.027749939,-0.3826001,40.76424,-73.92328,-0.0021467065,-0.017490065,0.004126714,-1.0277334,0.6166412,1490135960089
327,-0.9528,-0.051,-0.35505,40.76424,-73.92328,-0.00113,-0.01765,0.00316,-0.9820004,0.5892014,1490135960156
328,-0.9533834,-0.03675006,-0.34569994,40.764244,-73.92328,0.0007833679,-0.027516572,0.0059900084,-0.93626744,0.56176156,1490135960222
329,-0.96751666,-0.039299928,-0.3050501,40.764244,-73.92328,0.0003833679,-0.02522345,0.004036625,-0.89053464,0.5343218,1490135960289
330,-0.9899,-0.036,-0.19165,40.764244,-73.92328,-0.00077,-0.02867,0.00499,-0.8448016,0.50688195,1490135960356
331,-1.0230666,-0.044200048,-0.059249938,40.764244,-73.92328,-0.0017466797,-0.03195661,-0.0030233338,-0.7990686,0.47944212,1490135960422
332,-1.0075334,-0.04311676,-0.015749939,40.764244,-73.92328,0.0045266408,-0.0597399,-0.0023099964,-0.7533358,0.45200235,1490135960489
333,-0.99855,-0.05305,-0.025,40.764244,-73.92328,0.00844,-0.05586,-0.00151,-0.7076028,0.4245625,1490135960556
334,-0.96428335,-0.045366675,-0.07621676,40.764244,-73.92328,-0.0022599488,-0.019966736,-0.005763324,-0.6618698,0.39712268,1490135960622
335,-0.9653666,-0.0502666,-0.12893336,40.764244,-73.92328,-0.003379983,0.009626567,-0.0015900036,-0.61613697,0.3696829,1490135960689
336,-0.9739,-0.0433,-0.1195,40.764244,-73.92328,-0.0018,0.02194,-0.00125,-0.570404,0.34224308,1490135960756
337,-0.99724996,-0.052433275,-0.097916685,40.764244,-73.92328,0.0016099914,0.0026865844,4.331665e-05,-0.524671,0.3148032,1490135960822
338,-1.01085,-0.044583313,-0.08941669,40.764244,-73.92328,0.0021899915,-0.015759978,0.0010100085,-0.47893816,0.28736347,1490135960889
339,-0.9937,-0.04175,-0.11525,40.764244,-73.92328,0.00279,-0.02354,0.00119,-0.4332052,0.2599236,1490135960956
340,-0.9948,-0.044183336,-0.12355001,40.764244,-73.92329,0.0034299865,-0.02064997,-0.0007099793,-0.39835668,0.23901448,1490135961022
341,-0.99388325,-0.05051666,-0.104800045,40.764244,-73.92329,0.002520005,-0.009443273,0.00062332884,-0.38463685,0.23078255,1490135961089
342,-0.9929,-0.0474,-0.09015,40.764244,-73.92329,-0.00248,0.00461,-0.00099,-0.37091693,0.2225506,1490135961156
343,-0.98981667,-0.047,-0.095816664,40.764244,-73.92329,0.0030832947,-0.008319922,-0.00094666745,-0.35719705,0.21431865,1490135961222
344,-0.9830333,-0.04738336,-0.10764997,40.764244,-73.92329,-0.00082001707,-0.0013299524,0.001343346,-0.34347722,0.20608672,1490135961289
345,-0.99455,-0.04495,-0.11885,40.764244,-73.92329,0.00358,-0.00516,0.00419,-0.32975727,0.19785476,1490135961356
346,-0.9814168,-0.049366675,-0.11426665,40.764244,-73.92329,0.0016099914,-0.004340039,-0.0004666748,-0.31603742,0.18962282,1490135961422
347,-0.99066675,-0.054383364,-0.10441668,40.764244,-73.92329,0.0036400342,-0.0061767446,0.0039999876,-0.30231756,0.18139088,1490135961489
348,-0.99,-0.04505,-0.0979,40.764244,-73.92329,0.00148,-0.01505,0.00528,-0.28859767,0.17315894,1490135961556
349,-0.99118334,-0.049166627,-0.09773335,40.764244,-73.92329,-4.331665e-05,-0.0045733764,0.00051334227,-0.2748778,0.16492698,1490135961622
350,-0.9964999,-0.04168329,-0.095033325,40.764248,-73.92329,0.002379983,-0.008310009,0.0012466577,-0.26115793,0.15669507,1490135961689
351,-0.98945,-0.049,-0.08035,40.764248,-73.92329,0.00132,-0.01788,0.00021,-0.24743803,0.1484631,1490135961756
352,-0.99334997,-0.046383385,-0.0870666,40.764248,-73.92329,0.0024733031,-0.013643255,-0.00068999635,-0.23371813,0.14023116,1490135961822
353,-0.9937667,-0.04980005,-0.07609998,40.764248,-73.92329,0.0004333374,-0.014843273,0.00062332884,-0.21999829,0.13199922,1490135961889
354,-1.00555,-0.0549,-0.0773,40.764248,-73.92329,0.00148,-0.01337,0.00307,-0.2062784,0.12376727,1490135961956
355,-0.98811674,-0.040183336,-0.08926665,40.764248,-73.92329,-0.0039466065,-0.0071867188,-0.0007000122,-0.1987782,0.11926715,1490135962022
356,-0.99548334,-0.048166625,-0.08870007,40.764248,-73.92329,-0.00055996585,-0.004160039,4.333374e-05,-0.20335148,0.12201113,1490135962089
357,-0.9885,-0.0404,-0.09025,40.764248,-73.92329,-1e-04,-0.00567,0.00099,-0.20792478,0.12475511,1490135962156
358,-0.9948,-0.055433277,-0.08773335,40.764248,-73.92329,0.005693286,-0.013896649,0.0014100036,-0.21249808,0.1274991,1490135962222
359,-0.9901333,-0.049,-0.09161664,40.764248,-73.92329,-0.0010167053,-0.009639961,0.0014000122,-0.21707135,0.13024306,1490135962289
360,-1.0058,-0.05615,-0.0885,40.764248,-73.92329,-0.00257,-0.00375,0.00081,-0.22164467,0.13298705,1490135962356
361,-0.99565005,-0.041383386,-0.09126665,40.764248,-73.92329,0.0017266967,-0.01639336,0.0017333252,-0.22621797,0.13573104,1490135962422
362,-0.9878667,-0.045900024,-0.084033325,40.764248,-73.92329,5.6727295e-05,-0.010503373,0.0007866553,-0.23079124,0.13847502,1490135962489
363,-0.98785,-0.0418,-0.0881,40.764248,-73.92329,0.00046,-0.00512,-0.0028,-0.23536454,0.14121899,1490135962556
364,-1.0026166,-0.056066602,-0.08673335,40.764248,-73.92329,-0.00025667113,-0.0073033506,0.0013333374,-0.23993786,0.14396298,1490135962622
365,-0.9941333,-0.04619995,-0.086416684,40.764248,-73.92329,0.002616632,-0.014703312,0.0032566662,-0.24451113,0.14670695,1490135962689
366,-0.98735,-0.0497,-0.07975,40.764248,-73.92329,-0.00401,-0.01111,0.00271,-0.24908443,0.14945094,1490135962756
367,-0.9869,-0.04275006,-0.08373335,40.764248,-73.92329,0.0058299745,-0.02686654,0.0012299988,-0.25365773,0.15219493,1490135962822
368,-0.9934668,-0.051150087,-0.093616635,40.764248,-73.92329,0.00081000855,-0.019296689,0.006156654,-0.25823098,0.15493889,1490135962889
369,-0.99655,-0.0393,-0.1094,40.764248,-73.92329,-0.00064,-0.02412,0.00188,-0.26280427,0.15768288,1490135962956
370,-0.9940833,-0.047349963,-0.11336668,40.764248,-73.923294,-0.0033399658,-0.008563373,-0.0008199951,-0.2656283,0.15937728,1490135963022
371,-0.9908412,-0.04931737,-0.11209528,40.764248,-73.923294,0.0018466455,-0.01652333,0.0028233288,-0.26505664,0.1590343,1490135963089
372,-0.9761579,-0.04573684,-0.1091579,40.764248,-73.923294,-0.0037428571,-0.008285714,0.0042285714,-0.264485,0.1586913,1490135963156
373,-0.987,-0.04260005,-0.11453329,40.764248,-73.923294,0.0035866064,-0.012534947,0.001548341,-0.26391333,0.15834829,1490135963222
374,-0.99780005,-0.04373342,-0.108733304,40.764248,-73.923294,-0.0004833374,-0.01193493,0.002188324,-0.26334167,0.15800531,1490135963289
375,-1.0026,-0.043,-0.1118,40.764248,-73.923294,0.00504,-0.01743,8.5e-05,-0.26277,0.1576623,1490135963356
376,-0.9850667,-0.042733327,-0.10913334,40.764248,-73.923294,-0.0054566236,-0.0008601123,-0.0016500122,-0.26219836,0.1573193,1490135963422
377,-0.99386656,-0.05086659,-0.10506674,40.764248,-73.923294,-0.0005166626,-0.00762829,-0.0036316712,-0.26162666,0.15697631,1490135963489
378,-0.9924,-0.0464,-0.1058,40.764248,-73.923294,-0.002405,-0.00582,0.000165,-0.26105502,0.15663332,1490135963556
379,-0.99866664,-0.05186666,-0.107733324,40.764248,-73.923294,0.004971615,-0.02033829,0.0054633324,-0.26048338,0.15629032,1490135963622
380,-0.98746663,-0.04486671,-0.10466663,40.764248,-73.923294,0.00050165405,-0.0050149355,0.0020666749,-0.2599117,0.15594733,1490135963689
381,-1.0012,-0.049,-0.0982,40.764248,-73.923294,0.00185,-0.013005,0.000935,-0.25934002,0.15560432,1490135963756
382,-0.98793334,-0.038266674,-0.103400014,40.764248,-73.923294,-0.0017416321,-0.01837503,0.004951659,-0.25876838,0.15526134,1490135963822
383,-0.99086666,-0.043799974,-0.106666684,40.764248,-73.923294,-0.00020994873,-0.008286719,-0.0010033326,-0.2581967,0.15491834,1490135963889
384,-0.9952,-0.0438,-0.1138,40.764248,-73.923294,-0.00225,-0.005345,-0.003115,-0.25762504,0.15457533,1490135963956
385,-0.9947333,-0.054533288,-0.10213333,40.764248,-73.923294,0.004741632,-0.01902664,0.0015666748,-0.25491536,0.15294953,1490135964022
386,-0.984,-0.044200025,-0.106333315,40.764248,-73.923294,0.0005233032,-0.010743299,0.0042666746,-0.24805543,0.14883356,1490135964089
387,-0.9972,-0.0506,-0.1018,40.764248,-73.923294,0.00387,-0.0127,0.0022,-0.24119547,0.14471757,1490135964156
388,-0.9858,-0.0360667,-0.109800026,40.764248,-73.923294,-0.002309978,-0.01641332,0.004328312,-0.23433554,0.1406016,1490135964222
389,-0.98946667,-0.041733302,-0.10240005,40.764248,-73.923294,-0.001261615,-0.003378424,-0.0015016785,-0.22747563,0.13648565,1490135964289
390,-0.9882,-0.0418,-0.104,40.764248,-73.923294,-0.001165,-0.01556,-0.00108,-0.22061567,0.13236967,1490135964356
391,-0.99673325,-0.055666625,-0.1069333,40.764248,-73.923294,0.0034582948,-0.019723298,0.0036666747,-0.21375573,0.12825368,1490135964422
392,-0.9870667,-0.045066737,-0.10106661,40.764248,-73.923294,-0.0020233765,-0.011189978,0.0026350038,-0.2068958,0.12413772,1490135964489
393,-1.0018,-0.0516,-0.1018,40.764248,-73.923294,0.00108,-0.01159,0.00272,-0.20003586,0.12002175,1490135964556
394,-0.9886667,-0.0380667,-0.102866665,40.76425,-73.923294,-0.0038599658,-0.014276702,0.006033325,-0.19317591,0.11590578,1490135964622
395,-0.988,-0.04213329,-0.098600015,40.76425,-73.923294,-0.000261615,-0.0056550475,0.00059832155,-0.18631598,0.11178981,1490135964689
396,-0.9942,-0.036,-0.1018,40.76425,-73.923294,0.0,-0.014765,0.002185,-0.17945603,0.10767384,1490135964756
397,-1.0054,-0.050266612,-0.10359999,40.76425,-73.923294,0.002641632,-0.020419955,0.0008516834,-0.17259608,0.103557855,1490135964822
398,-0.9906,-0.044800036,-0.09726664,40.76425,-73.923294,0.00017662354,-0.007096619,-0.0026499878,-0.16573617,0.09944189,1490135964889
399,-0.999,-0.0518,-0.0988,40.76425,-73.923294,0.00133,-0.0085,-0.000135,-0.15887623,0.09532592,1490135964956
400,-0.98386675,-0.041333374,-0.09326667,40.76425,-73.9233,-0.0021549524,-0.01163507,0.002751659,-0.15415429,0.09249275,1490135965022
401,-0.9900666,-0.04726664,-0.102933384,40.76425,-73.9233,-0.002361615,-0.0013700562,0.0009966674,-0.15358263,0.092149764,1490135965089
402,-0.9932,-0.0378,-0.1066,40.76425,-73.9233,0.00115,-0.007235,0.002745,-0.15301096,0.09180676,1490135965156
403,-0.9905333,-0.04646665,-0.100733325,40.76425,-73.9233,0.00670494,-0.016496584,0.00505999,-0.1524393,0.09146376,1490135965222
404,-0.98260003,-0.040933385,-0.098799974,40.76425,-73.9233,-0.0003917053,-0.0053216494,0.0015350037,-0.15186766,0.091120765,1490135965289
405,-0.9998,-0.0486,-0.1036,40.76425,-73.9233,0.0021,-0.01232,0.0,-0.15129599,0.09077777,1490135965356
406,-0.9898667,-0.03740001,-0.103666686,40.76425,-73.9233,-0.0038699438,-0.011590022,0.0023849842,-0.15072432,0.090434775,1490135965422
407,-0.99366665,-0.042933263,-0.110800035,40.76425,-73.9233,0.00053167116,-0.0051017273,-0.002498346,-0.15015265,0.090091765,1490135965489
408,-0.979,-0.0402,-0.1062,40.76425,-73.9233,-0.00109,-0.009155,0.003065,-0.14958099,0.08974877,1490135965556
409,-0.9854,-0.046466712,-0.10866663,40.76425,-73.9233,0.006171615,-0.010298256,0.00024666992,-0.14900933,0.089405775,1490135965622
410,-0.9998667,-0.04626676,-0.10766663,40.76425,-73.9233,0.0005866455,-0.0064216494,0.0016199951,-0.14843766,0.08906278,1490135965689
411,-0.9922,-0.04,-0.1126,40.76425,-73.9233,0.003775,-0.01891,0.00275,-0.14786601,0.08871978,1490135965756
412,-0.9941333,-0.046666566,-0.1001334,40.76425,-73.9233,-0.0052266405,-0.0033016712,0.0014499878,-0.14729434,0.08837679,1490135965822
413,-0.9924667,-0.042799916,-0.109933324,40.76425,-73.9233,0.0037383118,-0.01765332,0.00018499146,-0.14672267,0.08803379,1490135965889
414,-0.9968,-0.0476,-0.102,40.76425,-73.9233,-0.00433,-0.013,0.001665,-0.14615102,0.087690786,1490135965956
415,-0.99000007,-0.038933422,-0.115199976,40.76425,-73.9233,0.0003666748,-0.014111649,0.0022,-0.14246951,0.085481875,1490135966022
416,-0.9875334,-0.048933387,-0.106066674,40.76425,-73.9233,0.0002550476,-0.017886719,0.0022333253,-0.13275129,0.07965093,1490135966089
417,-0.9856,-0.0386,-0.1054,40.76425,-73.9233,0.00051,-0.00581,-0.000715,-0.12303302,0.07381996,1490135966156
418,-0.99713326,-0.04599994,-0.11133331,40.76425,-73.9233,0.0050532813,-0.017109979,0.0015666748,-0.11331476,0.06798899,1490135966222
419,-0.9906667,-0.039800037,-0.11159995,40.76425,-73.9233,-0.0014550476,-0.007129944,0.00050167844,-0.103596546,0.06215805,1490135966289
420,-0.9992,-0.0504,-0.1086,40.76425,-73.9233,0.00295,-0.01924,-5e-05,-0.09387828,0.05632708,1490135966356
421,-0.9866666,-0.04140001,-0.10353335,40.76425,-73.9233,-0.0068682726,-0.00857336,0.00038665527,-0.08416002,0.050496113,1490135966422
422,-0.9917999,-0.04559989,-0.10760007,40.76425,-73.9233,0.0031849914,-0.011843299,-0.002,-0.07444179,0.04466516,1490135966489
423,-0.98868424,-0.044894736,-0.10363158,40.76425,-73.9233,-0.004495,-0.009485,0.00265,-0.06472354,0.038834196,1490135966556
424,-0.9909167,-0.03625011,-0.11399995,40.76425,-73.9233,0.0048733205,-0.01337332,-3.33374e-05,-0.055005275,0.03300323,1490135966622
425,-0.9943334,-0.0456667,-0.10858334,40.76425,-73.9233,-0.0005865979,-0.019953437,0.0021399928,-0.045287047,0.027172282,1490135966689
426,-0.98425,-0.03575,-0.117,40.76425,-73.9233,0.00062,-0.00806,-0.00204,-0.03556879,0.021341316,1490135966756
427,-0.9929166,-0.0493333,-0.11274999,40.76425,-73.9233,0.003033264,-0.017079905,-0.0016599927,-0.025850529,0.015510348,1490135966822
428,-0.99750006,-0.04908341,-0.111666605,40.76425,-73.9233,-0.0018466968,-0.008679961,-0.0015199963,-0.016132303,0.009679401,1490135966889
429,-0.99275,-0.0475,-0.12075,40.76425,-73.9233,0.00272,-0.01294,-0.0003,-0.0064140437,0.003848434,1490135966956
430,-0.99391663,-0.052999903,-0.10616672,40.76425,-73.9233,-0.001686654,-0.0046266797,0.0,-0.0,0.0,1490135967022
431,-0.98516667,-0.039749965,-0.113,40.76425,-73.9233,0.0017466235,-0.017299969,0.0022666748,-0.0,0.0,1490135967089
432,-0.99825,-0.04925,-0.1085,40.76425,-73.9233,-0.00112,-0.01208,0.00304,-0.0,0.0,1490135967156
433,-0.99408334,-0.03158341,-0.12008334,40.76425,-73.9233,-0.0027399524,-0.014273382,0.0008933301,-0.0,0.0,1490135967222
434,-0.99399996,-0.044666603,-0.11341671,40.76425,-73.9233,-0.0002533032,-0.010086671,-0.002653346,-0.0,0.0,1490135967289
435,-0.9875,-0.04075,-0.10925,40.76425,-73.9233,-0.00194,-0.01126,0.0019,-0.0,0.0,1490135967356
436,-0.98175,-0.04500005,-0.114916615,40.76425,-73.9233,0.004559944,-0.009286593,-0.0019400013,-0.0,0.0,1490135967422
437,-0.9963334,-0.046833422,-0.109083265,40.76425,-73.9233,0.0017266882,-0.019880023,0.00047997924,-0.0,0.0,1490135967489
438,-0.99175,-0.04525,-0.11275,40.76425,-73.9233,0.00398,-0.01828,0.00138,-0.0,0.0,1490135967556
439,-1.0053333,-0.054999903,-0.10275003,40.76425,-73.9233,0.001953329,-0.0104400255,-0.0017333252,-0.0,0.0,1490135967622
440,-0.9848333,-0.04158329,-0.11074996,40.76425,-73.9233,0.0028466235,-0.015006619,0.00074667844,-0.0,0.0,1490135967689
441,-0.9975,-0.05375,-0.1045,40.76425,-73.9233,-0.00486,-0.00186,0.00032,-0.0,0.0,1490135967756
442,-0.98675007,-0.036500074,-0.11549997,40.76425,-73.9233,-0.00015997437,-0.008546702,1.333374e-05,-0.0,0.0,1490135967822
443,-0.9930833,-0.04558329,-0.112416714,40.76425,-73.9233,0.00088671385,-0.01012007,-0.00042666993,-0.0,0.0,1490135967889
444,-0.985,-0.0365,-0.1095,40.76425,-73.9233,-0.00216,-0.01636,0.00212,-0.0,0.0,1490135967956
445,-0.98591673,-0.0446667,-0.11166665,40.76425,-73.9233,0.00015997437,-0.012486593,0.00041334596,-0.0,0.0,1490135968022
446,-0.99683344,-0.046250086,-0.107166626,40.76425,-73.9233,0.0025666626,-0.014079961,4.666626e-05,-0.0,0.0,1490135968089
447,-0.9925,-0.0425,-0.103,40.76425,-73.9233,0.00228,-0.01298,-0.00178,-0.0,0.0,1490135968156
448,-0.9936666,-0.051583264,-0.094833374,40.76425,-73.9233,0.0018666626,-0.0138,0.0020533288,-0.0,0.0,1490135968222
449,-0.9875833,-0.0443333,-0.102166675,40.76425,-73.9233,0.0002533032,-0.010246623,0.0005599951,-0.0,0.0,1490135968289
450,-0.99575,-0.0515,-0.1,40.76425,-73.9233,-0.00026,-0.01,0.00238,-0.0,0.0,1490135968356
451,-0.9831667,-0.039666697,-0.10891666,40.76425,-73.9233,-0.00081999146,-0.013093311,0.0018199915,-0.0,0.0,1490135968422
452,-0.9921667,-0.047749963,-0.10441666,40.76425,-73.9233,-0.0009599829,-0.008786702,-0.00048000365,-0.0,0.0,1490135968489
453,-0.98725,-0.04475,-0.10475,40.76425,-73.9233,0.00016,-0.0138,0.00112,-0.0,0.0,1490135968556
454,-0.99341667,-0.043583363,-0.09633335,40.76425,-73.9233,0.0017333252,-0.013753299,0.0015266797,-0.0,0.0,1490135968622
455,-0.9909167,-0.049500074,-0.10049997,40.76425,-73.9233,0.0011400171,-0.014013359,0.0022733423,-0.0,0.0,1490135968689
456,-0.9945,-0.041,-0.1025,40.76425,-73.9233,0.00012,-0.0134,6e-05,-0.0,0.0,1490135968756
457,-0.9974166,-0.050916612,-0.10791666,40.76425,-73.9233,0.0021133032,-0.012666632,0.002039995,-0.0,0.0,1490135968822
458,-0.98975,-0.045083363,-0.10600005,40.76425,-73.9233,-0.0009200391,-0.012979961,0.0017000122,-0.0,0.0,1490135968889
459,-0.99575,-0.04775,-0.099,40.76425,-73.9233,0.00504,-0.01834,-0.00064,-0.0,0.0,1490135968956
460,-0.9999166,-0.051999953,-0.10066665,40.76425,-73.9233,-0.0038999573,-0.012553359,0.0011733386,-0.0,0.0,1490135969022
461,-0.9916666,-0.03999995,-0.10558334,40.76425,-73.9233,0.0019599828,-0.011953304,0.0010266578,-0.0,0.0,1490135969089
462,-1.00025,-0.048,-0.10175,40.76425,-73.9233,0.00062,-0.01252,0.0,-0.0,0.0,1490135969156
463,-0.9840834,-0.038750038,-0.10724996,40.76425,-73.9233,-0.0033599744,-0.005100061,-0.000120003664,-0.0,0.0,1490135969222
464,-0.99616665,-0.04549993,-0.099833325,40.76425,-73.9233,0.004713329,-0.018240018,0.0006866711,-0.0,0.0,1490135969289
465,-0.99225,-0.0465,-0.101,40.76425,-73.9233,-0.00538,-0.007,0.00162,-0.0,0.0,1490135969356
466,-0.98658335,-0.040666748,-0.10058336,40.76425,-73.9233,0.0045400136,-0.018113304,0.0031533288,-0.0,0.0,1490135969422
467,-0.99333334,-0.0473333,-0.106583335,40.76425,-73.9233,-0.0001599524,-0.00880671,0.00045332153,-0.0,0.0,1490135969489
468,-0.98425,-0.03975,-0.10425,40.76425,-73.9233,-0.00106,-0.0153,-0.00036,-0.0,0.0,1490135969556
469,-0.99441665,-0.04458336,-0.09833335,40.76425,-73.9233,0.0044466406,-0.01944661,-0.0005599927,-0.0,0.0,1490135969622
470,-0.9915834,-0.048250087,-0.102,40.76425,-73.9233,0.001653346,-0.01660668,0.001546654,-0.0,0.0,1490135969689
471,-0.99475,-0.04275,-0.0975,40.76425,-73.9233,0.00034,-0.01684,0.00052,-0.0,0.0,1490135969756
472,-0.9982499,-0.050083287,-0.10325001,40.76425,-73.9233,0.003066632,-0.012079978,-0.0004999878,-0.0,0.0,1490135969822
473,-0.9946667,-0.045333397,-0.104500026,40.76425,-73.9233,-0.00026002564,-0.010099939,0.0016800037,-0.0,0.0,1490135969889
474,-0.9916,-0.0451,-0.1062,40.76425,-73.9233,0.0032,-0.0074,-0.00018571429,-0.0,0.0,1490135969956
475,-0.9936333,-0.052433264,-0.099200025,40.76425,-73.9233,0.00017500855,-0.010958351,0.0009333252,-0.0,0.0,1490135970022
476,-0.98313326,-0.04256664,-0.10353335,40.76425,-73.9233,-0.0022166967,-0.003999961,-0.0012916541,-0.0,0.0,1490135970089
477,-0.9938,-0.0503,-0.1003,40.76425,-73.9233,0.00685,-0.01755,0.00175,-0.0,0.0,1490135970156
478,-0.99296665,-0.043933325,-0.106799975,40.76425,-73.9233,-0.0061666067,-0.0033417272,-6.666992e-05,-0.0,0.0,1490135970222
479,-0.98749995,-0.043233264,-0.10146665,40.76425,-73.9233,0.0023333202,-0.014258329,0.0011416662,-0.0,0.0,1490135970289
480,-0.9982,-0.0496,-0.1006,40.76425,-73.9233,-0.001875,-0.00685,0.002175,-0.0,0.0,1490135970356
481,-0.98346674,-0.03740005,-0.10383331,40.76425,-73.9233,-0.0005666455,-0.011225031,-7.500366e-05,-0.0,0.0,1490135970422
482,-0.99556667,-0.04533325,-0.10063334,40.76425,-73.9233,0.0042,-0.016125008,0.0016166626,-0.0,0.0,1490135970489
483,-0.9895,-0.045,-0.1071,40.76425,-73.9233,-0.005875,0.00315,0.0007,-0.0,0.0,1490135970556
484,-0.98446673,-0.03566675,-0.10413335,40.76425,-73.9233,0.003191671,-0.0138,0.0011,-0.0,0.0,1490135970622
485,-0.9935334,-0.045366663,-0.10173333,40.76425,-73.9233,-0.00063328614,-0.005308385,1.666748e-05,-0.0,0.0,1490135970689
486,-0.983,-0.0416,-0.1011,40.76425,-73.9233,0.002,-0.0095,0.003225,-0.0,0.0,1490135970756
487,-0.9921,-0.040466722,-0.10093333,40.76425,-73.9233,0.004683303,-0.015016619,0.00026667482,-0.0,0.0,1490135970822
488,-0.9880334,-0.047866724,-0.10546665,40.76425,-73.9233,0.0019916883,-0.012841749,0.0015749964,-0.0,0.0,1490135970889
489,-0.9909,-0.0437,-0.0989,40.76425,-73.9233,0.00075,-0.011425,0.00165,-0.0,0.0,1490135970956
490,-0.99756664,-0.05086665,-0.106933326,40.76425,-73.9233,0.004149944,-0.012116585,0.00025000732,-0.0,0.0,1490135971022
491,-0.99166673,-0.045666747,-0.102833316,40.76425,-73.9233,0.0006499829,-0.014608346,0.0013250086,-0.0,0.0,1490135971089
492,-0.9916,-0.0425,-0.1041,40.76425,-73.9233,0.00025,-0.008475,-0.001775,-0.0,0.0,1490135971156
493,-1.0002333,-0.05433325,-0.102966666,40.76425,-73.9233,0.001741654,-0.014449978,0.0011,-0.0,0.0,1490135971222
494,-0.99436665,-0.043166686,-0.102066696,40.76425,-73.9233,-0.0035417054,-0.009533281,0.0005666699,-0.0,0.0,1490135971289
495,-0.9922,-0.0503,-0.1048,40.76425,-73.9233,0.004475,-0.011725,0.000625,-0.0,0.0,1490135971356
496,-0.9948333,-0.054433264,-0.10106667,40.76425,-73.9233,-0.0034166235,-0.00619171,0.002941659,-0.0,0.0,1490135971422
497,-0.98459995,-0.039766613,-0.10616669,40.76425,-73.9233,0.0018749915,-0.0078583285,0.0012250085,-0.0,0.0,1490135971489
498,-0.9919,-0.0511,-0.1023,40.76425,-73.9233,0.00255,-0.013525,0.0027,-0.0,0.0,1490135971556
499,-0.98323333,-0.041100014,-0.105,40.76425,-73.9233,-0.0056082946,-0.00556668,0.0029333252,-0.0,0.0,1490135971622
500,-0.99146664,-0.044233263,-0.10346665,40.76425,-73.9233,0.005841671,-0.02126672,0.0016166626,-0.0,0.0,1490135971689
501,-0.994,-0.0482,-0.1025,40.76425,-73.9233,-0.0072,-0.004775,0.000725,-0.0,0.0,1490135971756
502,-0.97846675,-0.034500062,-0.106,40.76425,-73.9233,0.0022750134,-0.020058272,0.0011083288,-0.0,0.0,1490135971822
503,-0.99626666,-0.04749994,-0.1,40.76425,-73.9233,0.0026333593,-0.015433359,0.00080831663,-0.0,0.0,1490135971889
504,-0.9878,-0.0407,-0.1049,40.76425,-73.9233,-0.00135,-0.007375,0.00185,-0.0,0.0,1490135971956
505,-0.9921,-0.03663341,-0.10110001,40.76425,-73.9233,0.0021750086,-0.02010833,0.0012833374,-0.0,0.0,1490135972022
506,-0.994,-0.045900013,-0.105,40.76425,-73.9233,-0.0025499437,-0.004150022,-0.0016250036,-0.0,0.0,1490135972089
507,-0.9853,-0.0416,-0.1055,40.76425,-73.9233,0.002075,-0.008725,0.00135,-0.0,0.0,1490135972156
508,-0.9913667,-0.04723336,-0.10206667,40.76425,-73.9233,0.002399966,-0.009058307,0.0001666748,-0.0,0.0,1490135972222
509,-0.9861334,-0.04866675,-0.10619997,40.76425,-73.9233,0.0029833764,-0.01161674,0.0011166675,-0.0,0.0,1490135972289
510,-0.9916,-0.0424,-0.1026,40.76425,-73.9233,0.000925,-0.013225,0.00325,-0.0,0.0,1490135972356
511,-0.99286664,-0.049833313,-0.100166686,40.76425,-73.9233,0.0032249524,-0.012299927,-0.0016666504,-0.0,0.0,1490135972422
512,-0.99183345,-0.047833435,-0.09956664,40.76425,-73.9233,0.0026916491,-0.019216698,0.003941671,-0.0,0.0,1490135972489
513,-0.9941,-0.0401,-0.1028,40.76425,-73.9233,-0.00035,-0.0138,0.00055,-0.0,0.0,1490135972556
514,-0.9972999,-0.050399926,-0.107066676,40.76425,-73.9233,0.004591632,-0.01667493,-0.0006499878,-0.0,0.0,1490135972622
515,-0.99523336,-0.044433363,-0.10080002,40.76425,-73.9233,-0.0027917223,-0.01242493,0.0005666699,-0.0,0.0,1490135972689
516,-0.9931,-0.0469,-0.1056,40.76425,-73.9233,0.0021,-0.014375,-0.0009,-0.0,0.0,1490135972756
517,-1.0012999,-0.052399926,-0.10006668,40.76425,-73.9233,-0.00065831176,-0.015991671,0.0022,-0.0,0.0,1490135972822
518,-0.98829997,-0.040299963,-0.10453335,40.76425,-73.9233,-0.0025667138,-0.0077832984,-0.00037499634,-0.0,0.0,1490135972889
519,-0.9936,-0.0504,-0.1017,40.76425,-73.9233,0.00475,-0.016525,0.0009,-0.0,0.0,1490135972956
520,-0.99869996,-0.04863329,-0.10086665,40.76425,-73.9233,-0.0069999266,-0.0070750867,0.0010250061,-0.0,0.0,1490135973022
521,-0.98269993,-0.038599927,-0.10226668,40.76425,-73.9233,0.0019166577,-0.007750017,-0.0012916541,-0.0,0.0,1490135973089
522,-0.9971,-0.0526,-0.0987,40.76425,-73.9233,0.00465,-0.013825,0.0038,-0.0,0.0,1490135973156
523,-0.9871667,-0.04310001,-0.102933325,40.76425,-73.9233,-0.0073499437,-0.002900039,0.0008333301,-0.0,0.0,1490135973222
524,-0.9866666,-0.044599928,-0.10646665,40.76425,-73.9233,0.005030171,-0.016657189,0.0007238142,-0.0,0.0,1490135973289
525,-0.9997,-0.0502,-0.10035,40.76425,-73.9233,-0.00252,-0.01208,0.00267,-0.0,0.0,1490135973356
526,-0.9792666,-0.03433325,-0.106966674,40.76425,-73.9233,-0.0030233117,-0.004343351,0.00093665894,-0.0,0.0,1490135973422
527,-0.9906333,-0.044383265,-0.098899975,40.76425,-73.9233,0.0048333374,-0.01988004,0.0022633336,-0.0,0.0,1490135973489
528,-0.9935,-0.0484,-0.106,40.76425,-73.9233,-0.0052,-0.00318,0.00036,-0.0,0.0,1490135973556
529,-0.98154986,-0.034433227,-0.10001666,40.76425,-73.9233,0.004173342,-0.031189913,0.0033266577,-0.0,0.0,1490135973622
530,-1.00105,-0.04721664,-0.10005001,40.76425,-73.9233,-0.00024664061,-0.013323351,-2.003418e-05,-0.0,0.0,1490135973689
531,-0.9889,-0.04365,-0.1034,40.76425,-73.9233,-0.00142,-0.0138,0.00073,-0.0,0.0,1490135973756
532,-0.99415,-0.03624994,-0.09701666,40.76425,-73.9233,0.007326658,-0.029656649,-0.0007333252,-0.0,0.0,1490135973822
533,-0.99851674,-0.050566725,-0.09794999,40.76425,-73.9233,-0.0017866235,-0.01005003,-0.0025966833,-0.0,0.0,1490135973889
534,-0.9898,-0.0412,-0.1047,40.76425,-73.9233,0.0007,-0.01702,-0.00123,-0.0,0.0,1490135973956
535,-0.99001664,-0.043983337,-0.09901666,40.76425,-73.9233,0.0028533032,-0.019916631,-0.0018033215,-0.0,0.0,1490135974022
536,-0.9939334,-0.054033425,-0.09948329,40.76425,-73.9233,0.001643385,-0.013160078,0.0010900012,-0.0,0.0,1490135974089
537,-0.99115,-0.03965,-0.10675,40.76425,-73.9233,0.00125,-0.0186,0.00287,-0.0,0.0,1490135974156
538,-0.9948167,-0.044783387,-0.10211664,40.76425,-73.9233,0.004909952,-0.015466602,-0.00069664186,-0.0,0.0,1490135974222
539,-0.99145013,-0.05091681,-0.100649916,40.76425,-73.9233,0.0025866968,-0.014260078,-0.0005066699,-0.0,0.0,1490135974289
540,-0.9893,-0.0426,-0.10405,40.76425,-73.9233,-0.00211,-0.01157,0.00064,-0.0,0.0,1490135974356
541,-0.9888834,-0.055633422,-0.111166626,40.76425,-73.9233,0.0026066063,-0.007863255,0.0021199903,-0.0,0.0,1490135974422
542,-0.9945001,-0.04976677,-0.106949985,40.76425,-73.9233,0.0038066576,-0.016606718,0.0046300087,-0.0,0.0,1490135974489
543,-0.99,-0.044,-0.0969,40.76425,-73.9233,0.00076,-0.01176,0.00051,-0.0,0.0,1490135974556
544,-0.98403335,-0.054666746,-0.099966675,40.76425,-73.9233,0.003776615,-0.015289913,9.333252e-05,-0.0,0.0,1490135974622
545,-0.9926167,-0.049300075,-0.10368334,40.76425,-73.9233,-0.0014133764,-0.0106,0.0013666748,-0.0,0.0,1490135974689
546,-0.9906,-0.0445,-0.10735,40.76425,-73.9233,0.00198,-0.01181,0.00037,-0.0,0.0,1490135974756
547,-0.99306667,-0.057733398,-0.10496668,40.76425,-73.9233,0.0060266457,-0.019456577,0.004323324,-0.0,0.0,1490135974822
548,-0.98873335,-0.041783363,-0.10173335,40.76425,-73.9233,-0.002440056,-0.013643311,0.0010733325,-0.0,0.0,1490135974889
549,-0.98655,-0.04505,-0.10295,40.76425,-73.9233,0.00321,-0.01444,0.0022,-0.0,0.0,1490135974956
550,-1.00305,-0.054750063,-0.09706665,40.76425,-73.9233,-0.001916632,-0.018959982,0.0053666625,-0.0034985822,0.0020991534,1490135975022
551,-0.9904333,-0.0370666,-0.106833376,40.76425,-73.9233,-0.0046133767,-0.005693281,-0.0014299963,-0.013788467,0.008273097,1490135975089
552,-0.9936,-0.0511,-0.1003,40.76425,-73.9233,0.00693,-0.02149,0.002,-0.024078391,0.014447063,1490135975156
553,-0.99606663,-0.04806665,-0.099983335,40.76425,-73.9233,-0.009033265,-0.006726719,0.00307333,-0.034368314,0.02062103,1490135975222
554,-0.98711663,-0.03669993,-0.10194999,40.76425,-73.9233,0.0015399829,-0.011846641,0.0008066577,-0.0446582,0.026794972,1490135975289
555,-1.00115,-0.04675,-0.1027,40.76425,-73.9233,0.00166,-0.01522,-0.0002,-0.05494812,0.03296894,1490135975356
556,-0.99009997,-0.036299925,-0.10803332,40.76425,-73.9233,-0.0070899744,0.0036332642,-0.005323324,-0.06523804,0.039142903,1490135975422
557,-0.9875333,-0.046649914,-0.103316665,40.76425,-73.9233,0.006566675,-0.019183367,0.0021900134,-0.07552793,0.045316845,1490135975489
558,-0.99565,-0.0517,-0.09765,40.76425,-73.9233,-0.00495,-0.00579,0.00294,-0.08581785,0.051490813,1490135975556
559,-0.9753666,-0.03638324,-0.104883365,40.76425,-73.9233,-0.0010299914,-0.0032100135,0.0020299915,-0.09610778,0.05766478,1490135975622
560,-0.9945833,-0.040699925,-0.099,40.76425,-73.9233,0.005356688,-0.017083367,0.0029600048,-0.106397666,0.06383872,1490135975689
561,-0.98585,-0.0405,-0.1086,40.764256,-73.9233,-0.00315,-0.0041,-0.00104,-0.11668758,0.07001269,1490135975756
562,-0.98146653,-0.037283264,-0.10795001,40.764256,-73.9233,0.0063,-0.022939945,0.0033266577,-0.1269775,0.07618666,1490135975822
563,-1.0003166,-0.053116612,-0.096100025,40.764256,-73.9233,-0.0009433118,-0.011453359,-0.0008266919,-0.1372674,0.082360595,1490135975889
564,-0.98165,-0.04435,-0.1059,40.764256,-73.9233,-2e-05,-0.00889,0.00153,-0.14755732,0.088534564,1490135975956
565,-0.9922333,-0.036233276,-0.097,40.764256,-73.92331,0.0072299913,-0.027166601,0.0023700085,-0.15085007,0.09051022,1490135976022
566,-0.9968334,-0.04568334,-0.105633326,40.764256,-73.92331,-0.0010899524,-0.007043385,-0.0009366785,-0.1405602,0.08433628,1490135976089
567,-0.98585,-0.04135,-0.10565,40.764256,-73.92331,-0.00017,-0.01744,0.0011,-0.13027026,0.07816231,1490135976156
568,-0.99298334,-0.048900023,-0.096183285,40.764256,-73.92331,0.0029933203,-0.021083307,-0.00065663696,-0.11998034,0.071988344,1490135976222
569,-0.99061674,-0.0529334,-0.10368334,40.764256,-73.92331,0.00094671384,-0.009593415,0.0014933301,-0.109690465,0.065814406,1490135976289
570,-0.99705,-0.04065,-0.1003,40.764256,-73.92331,0.00305,-0.02261,0.00441,-0.099400535,0.059640437,1490135976356
571,-1.0036668,-0.04380005,-0.105116636,40.764256,-73.92331,0.00078997435,-0.011519978,-0.002996654,-0.08911061,0.053466473,1490135976422
572,-0.9913501,-0.04771676,-0.106,40.764256,-73.92331,0.0028167053,-0.014790013,-0.00093666627,-0.07882072,0.047292527,1490135976489
573,-0.99035,-0.04335,-0.0985,40.764256,-73.92331,-0.00167,-0.01299,-0.00136,-0.068530805,0.041118562,1490135976556
574,-0.9908,-0.0547334,-0.10103332,40.764256,-73.92331,0.0048066066,-0.0091732815,-0.0009433386,-0.05824088,0.034944598,1490135976622
575,-0.99535006,-0.053350087,-0.09689998,40.764256,-73.92331,0.0020166321,-0.015219961,0.0027966835,-0.047950994,0.028770654,1490135976689
576,-0.9886,-0.0432,-0.1046,40.764256,-73.92331,-0.0017666667,-0.010633334,-0.00026666667,-0.037661072,0.022596687,1490135976756
577,-0.9971334,-0.056533422,-0.107800014,40.764256,-73.92331,0.003169983,-0.01597165,0.0011199951,-0.02737115,0.016422722,1490135976822
578,-0.99473333,-0.043666687,-0.101400025,40.764256,-73.92331,-0.004478385,-0.0053832643,0.001398341,-0.017081263,0.010248778,1490135976889
579,-0.9852,-0.0438,-0.1032,40.764256,-73.92331,0.00308,-0.004915,-0.000915,-0.0067913407,0.0040748124,1490135976956
580,-0.99806666,-0.05820005,-0.097,40.764256,-73.92331,0.005201666,-0.022176696,0.0043116882,-0.0,0.0,1490135977022
581,-0.9871333,-0.044799987,-0.106133364,40.764256,-73.92331,-0.004478385,-0.0023249572,0.00096333254,-0.0,0.0,1490135977089
582,-0.983,-0.0454,-0.1056,40.764256,-73.92331,0.00345,-0.01188,0.00154,-0.0,0.0,1490135977156
583,-1.0010667,-0.050600026,-0.102,40.764256,-73.92331,-0.0041766968,-0.01385332,0.0031316835,-0.0,0.0,1490135977222
584,-0.9829333,-0.038399965,-0.10813336,40.764256,-73.92331,-0.0004533545,-0.0085,0.0,-0.0,0.0,1490135977289
585,-0.9928,-0.0512,-0.1012,40.764256,-73.92331,0.003815,-0.018855,0.001465,-0.0,0.0,1490135977356
586,-0.9906666,-0.046399977,-0.10466669,40.764256,-73.92331,-0.010486719,-0.004289978,0.0018983581,-0.0,0.0,1490135977422
587,-0.9844,-0.040533263,-0.10493335,40.764256,-73.92331,0.002348329,-0.016738351,0.0004666748,-0.0,0.0,1490135977489
588,-1.0024,-0.047,-0.1008,40.764256,-73.92331,-0.000995,-0.013395,0.001365,-0.0,0.0,1490135977556
589,-0.97999996,-0.0315999,-0.107800014,40.764256,-73.92331,-0.004060034,-0.011663342,5.4986573e-05,-0.0,0.0,1490135977622
590,-0.99359995,-0.042999938,-0.09539996,40.764256,-73.92331,0.004168334,-0.020951672,0.00076499145,-0.0,0.0,1490135977689
591,-0.9932,-0.0476,-0.1048,40.764256,-73.92331,-0.00622,-0.004585,0.000235,-0.0,0.0,1490135977756
592,-0.9840666,-0.036466576,-0.10013332,40.764256,-73.92331,0.0051133544,-0.018905047,0.0011983337,-0.0,0.0,1490135977822
593,-0.99606663,-0.04933331,-0.10640003,40.764256,-73.92331,-0.0020266406,-0.006368334,-0.00080168335,-0.0,0.0,1490135977889
594,-0.9858,-0.0432,-0.1032,40.764256,-73.92331,0.001555,-0.011455,0.00012,-0.0,0.0,1490135977956
595,-0.99113333,-0.040133324,-0.101199985,40.764256,-73.92331,0.007135065,-0.018833399,0.0022950012,-0.0,0.0,1490135978022
596,-0.9878667,-0.0468667,-0.105,40.764256,-73.92331,-0.00013827758,-0.004900073,0.0007200049,-0.0,0.0,1490135978089
597,-0.9918,-0.0458,-0.101,40.764256,-73.92331,0.00326,-0.018345,0.003595,-0.0,0.0,1490135978156
598,-0.99886674,-0.046333373,-0.10419999,40.764256,-73.92331,0.0008950256,-0.010458368,0.0,-0.0,0.0,1490135978222
599,-0.9927334,-0.050200075,-0.103466675,40.764256,-73.92331,0.0034666748,-0.012121689,0.0026033423,-0.0,0.0,1490135978289
600,-0.991,-0.0418,-0.1032,40.764256,-73.92331,-0.000245,-0.009685,0.00038,-0.0,0.0,1490135978356
601,-0.9936667,-0.05266675,-0.10280001,40.764256,-73.92331,0.006281671,-0.014969983,0.0012,-0.0,0.0,1490135978422
602,-0.99780005,-0.047333375,-0.101400025,40.764256,-73.92331,-0.0034100513,-0.009266602,3.166626e-05,-0.0,0.0,1490135978489
